choice_numeric_unfiltered,trial_filter,stim_RT,stim_ACC,achoice,bchoice,cchoice,stim_choice,stim_choice_numeric,prob_1,prob_2,prob_3,best_choice,above_chance_diff,prob_switch_err,spont_switch_err,erratic_spont,explore_switch,error_NOS,perseverative
1,1,1241,1,1,0,0,A,1,NaN,NaN,NaN,0,NaN,0,0,0,0,0,0
1,1,392,0,1,0,0,A,1,1,0,0,1,1,0,0,0,0,1,0
1,1,380,1,1,0,0,A,1,0.5,0,0,1,0.166666666666667,0,0,0,0,0,0
1,1,365,1,1,0,0,A,1,0.666666666666667,0,0,1,0.333333333333333,0,0,0,0,0,0
1,1,352,1,1,0,0,A,1,0.75,0,0,1,0.0833333333333334,0,0,0,0,0,0
2,1,389,1,0,1,0,B,2,0.8,0,0,0,0.133333333333333,0,0,0,0,0,0
3,1,341,0,0,0,1,C,3,0.666666666666667,0.166666666666667,0,0,0.666666666666667,0,1,0,0,0,0
2,1,375,1,0,1,0,B,2,0.571428571428571,0.142857142857143,0,0,0.238095238095238,0,0,0,0,0,0
2,1,370,1,0,1,0,B,2,0.5,0.25,0,0,0.166666666666667,0,0,0,0,0,0
1,1,402,1,1,0,0,A,1,0.444444444444444,0.333333333333333,0,1,0.111111111111111,0,0,0,0,0,0
1,1,372,1,1,0,0,A,1,0.5,0.3,0,1,0.166666666666667,0,0,0,0,0,0
1,1,407,1,1,0,0,A,1,0.5,0.3,0,1,0.166666666666667,0,0,0,0,0,0
3,1,410,0,0,0,1,C,3,0.6,0.3,0,0,0.266666666666667,0,1,1,0,0,0
2,1,329,0,0,1,0,B,2,0.5,0.3,0,0,0.5,0,0,0,0,0,0
2,1,658,0,0,1,0,B,2,0.4,0.3,0,0,-0.266666666666667,0,0,0,0,1,0
3,1,397,0,0,0,1,C,3,0.3,0.3,0,0,-0.0333333333333333,0,0,0,0,0,0
2,1,353,1,0,1,0,B,2,0.3,0.2,0,0,-0.0333333333333333,0,0,0,0,0,0
1,1,396,1,1,0,0,A,1,0.3,0.3,0,1,-0.0333333333333333,0,0,0,0,0,0
2,1,381,1,0,1,0,B,2,0.4,0.2,0,0,-0.266666666666667,0,0,0,0,0,0
1,1,391,1,1,0,0,A,1,0.4,0.2,0,1,0.0666666666666667,0,0,0,0,0,0
3,1,393,1,0,0,1,C,3,0.4,0.2,0,0,0.0666666666666667,0,0,0,0,0,0
2,1,386,0,0,1,0,B,2,0.3,0.2,0.1,0,0.3,0,1,0,0,0,0
3,1,383,1,0,0,1,C,3,0.2,0.2,0.1,0,-0.133333333333333,0,0,0,0,0,0
3,1,330,0,0,0,1,C,3,0.2,0.2,0.2,1,0.2,0,0,0,0,1,0
1,1,389,1,1,0,0,A,1,0.2,0.2,0.2,1,-0.466666666666667,0,0,0,0,0,0
1,1,367,1,1,0,0,A,1,0.3,0.2,0.2,1,-0.0333333333333333,0,0,0,0,0,0
1,1,308,1,1,0,0,A,1,0.4,0.2,0.2,1,0.0666666666666667,0,0,0,0,0,0
2,1,394,1,0,1,0,B,2,0.5,0.1,0.2,0,0.166666666666667,0,0,0,0,0,0
1,1,355,1,1,0,0,A,1,0.4,0.2,0.2,1,0.0666666666666667,0,0,0,0,0,0
3,1,348,1,0,0,1,C,3,0.5,0.1,0.2,0,0.166666666666667,0,0,0,0,0,0
3,1,366,1,0,0,1,C,3,0.4,0.1,0.3,0,0.0666666666666667,0,0,0,0,0,0
1,1,497,0,1,0,0,A,1,0.4,0.1,0.3,1,0.4,0,1,0,1,0,0
2,1,368,0,0,1,0,B,2,0.4,0.1,0.3,0,0.0666666666666667,1,0,0,0,0,0
3,1,284,0,0,0,1,C,3,0.4,0.1,0.2,0,0.0666666666666667,0,0,0,0,0,0
3,1,314,0,0,0,1,C,3,0.4,0.1,0.2,0,0.4,0,0,0,0,1,0
1,1,424,0,1,0,0,A,1,0.3,0.1,0.2,1,0.3,0,0,0,0,0,0
1,1,358,0,1,0,0,A,1,0.2,0.1,0.2,1,0.2,0,0,0,0,1,0
3,1,375,0,0,0,1,C,3,0.1,0.1,0.2,1,0.2,1,0,0,0,0,0
2,1,361,0,0,1,0,B,2,0.1,0,0.2,0,-0.133333333333333,1,0,0,0,0,0
3,1,376,0,0,0,1,C,3,0,0,0.2,1,0.2,0,0,0,0,0,0
2,1,332,0,0,1,0,B,2,0,0,0.1,0,0.1,1,0,0,0,0,0
2,1,428,0,0,1,0,B,2,0,0,0,1,-0.333333333333333,0,0,0,0,1,0
1,1,359,0,1,0,0,A,1,0,0,0,1,0,1,0,0,0,0,0
3,1,336,0,0,0,1,C,3,0,0,0,1,0,1,0,0,0,0,0
1,1,349,0,1,0,0,A,1,0,0,0,1,-0.666666666666667,1,0,0,0,0,0
1,1,334,0,1,0,0,A,1,0,0,0,1,-0.333333333333333,0,0,0,0,1,0
3,1,405,0,0,0,1,C,3,0,0,0,1,0,1,0,0,0,0,0
2,1,386,0,0,1,0,B,2,0,0,0,1,-0.333333333333333,1,0,0,0,0,0
2,1,301,1,0,1,0,B,2,0,0,0,1,-0.333333333333333,0,0,0,0,0,0
1,1,372,0,1,0,0,A,1,0,0.1,0,0,0.1,0,1,1,0,0,0
3,1,1012,1,0,0,1,C,3,0,0.1,0,0,-0.233333333333333,0,0,0,0,0,0
3,1,331,0,0,0,1,C,3,0,0.1,0.1,1,0.1,0,0,0,0,1,0
3,1,626,0,0,0,1,C,3,0,0.1,0.1,1,0.1,0,0,0,0,1,0
2,1,347,0,0,1,0,B,2,0,0.1,0.1,1,0.1,1,0,0,0,0,0
3,1,370,0,0,0,1,C,3,0,0.1,0.1,1,0.1,1,0,0,0,0,0
1,1,314,1,1,0,0,A,1,0,0.1,0.1,0,-0.233333333333333,0,0,0,0,0,0
1,1,407,0,1,0,0,A,1,0.1,0.1,0.1,1,0.1,0,0,0,0,1,0
3,1,345,0,0,0,1,C,3,0.1,0.1,0.1,1,0.1,1,0,0,0,0,0
1,1,454,0,1,0,0,A,1,0.1,0.1,0.1,1,0.1,1,0,0,0,0,0
1,1,368,0,1,0,0,A,1,0.1,0,0.1,1,0.1,0,0,0,0,1,0
1,1,354,0,1,0,0,A,1,0.1,0,0.1,1,-0.566666666666667,0,0,0,0,1,1
1,1,320,0,1,0,0,A,1,0.1,0,0,1,-0.566666666666667,0,0,0,0,1,1
1,1,492,0,1,0,0,A,1,0.1,0,0,1,-0.233333333333333,0,0,0,0,1,1
2,1,395,1,0,1,0,B,2,0.1,0,0,0,-0.233333333333333,0,0,0,0,0,0
2,1,386,0,0,1,0,B,2,0.1,0.1,0,1,-0.233333333333333,0,0,0,0,1,0
2,1,395,1,0,1,0,B,2,0.1,0.1,0,1,-0.233333333333333,0,0,0,0,0,0
2,1,333,1,0,1,0,B,2,0,0.2,0,1,-0.133333333333333,0,0,0,0,0,0
2,1,321,1,0,1,0,B,2,0,0.3,0,1,-0.0333333333333333,0,0,0,0,0,0
3,1,322,1,0,0,1,C,3,0,0.4,0,0,0.0666666666666667,0,0,0,0,0,0
1,1,318,1,1,0,0,A,1,0,0.4,0.1,0,0.0666666666666667,0,0,0,0,0,0
1,1,326,1,1,0,0,A,1,0.1,0.4,0.1,0,0.0666666666666667,0,0,0,0,0,0
2,1,290,0,0,1,0,B,2,0.2,0.4,0.1,1,0.4,0,1,0,1,0,0
1,1,548,0,1,0,0,A,1,0.2,0.4,0.1,0,0.0666666666666667,1,0,0,0,0,0
3,1,350,1,0,0,1,C,3,0.2,0.4,0.1,0,0.0666666666666667,0,0,0,0,0,0
2,1,369,1,0,1,0,B,2,0.2,0.3,0.2,1,-0.0333333333333333,0,0,0,0,0,0
2,1,410,1,0,1,0,B,2,0.2,0.4,0.2,1,0.0666666666666667,0,0,0,0,0,0
1,1,447,1,1,0,0,A,1,0.2,0.4,0.2,0,0.0666666666666667,0,0,0,0,0,0
2,1,330,1,0,1,0,B,2,0.3,0.3,0.2,1,-0.0333333333333333,0,0,0,0,0,0
1,1,349,1,1,0,0,A,1,0.3,0.3,0.2,1,-0.0333333333333333,0,0,0,0,0,0
3,1,344,1,0,0,1,C,3,0.4,0.3,0.1,0,0.0666666666666667,0,0,0,0,0,0
2,1,421,0,0,1,0,B,2,0.3,0.3,0.2,1,0.3,0,1,0,0,0,0
1,1,387,1,1,0,0,A,1,0.2,0.3,0.2,0,-0.0333333333333333,0,0,0,0,0,0
2,1,335,0,0,1,0,B,2,0.3,0.3,0.2,1,0.3,0,1,0,0,0,0
3,1,537,0,0,0,1,C,3,0.3,0.3,0.2,0,0.3,1,0,0,0,0,0
3,1,465,1,0,0,1,C,3,0.3,0.3,0.1,0,-0.366666666666667,0,0,0,0,0,0
1,1,335,1,1,0,0,A,1,0.3,0.2,0.2,1,-0.0333333333333333,0,0,0,0,0,0
3,1,365,1,0,0,1,C,3,0.4,0.1,0.2,0,0.0666666666666667,0,0,0,0,0,0
3,1,415,1,0,0,1,C,3,0.3,0.1,0.3,1,-0.0333333333333333,0,0,0,0,0,0
2,1,394,1,0,1,0,B,2,0.3,0,0.4,0,0.0666666666666667,0,0,0,0,0,0
3,1,355,1,0,0,1,C,3,0.2,0.1,0.4,1,-0.266666666666667,0,0,0,0,0,0
1,1,340,0,1,0,0,A,1,0.2,0.1,0.4,0,0.4,0,1,1,0,0,0
1,1,415,0,1,0,0,A,1,0.2,0.1,0.4,0,0.4,0,0,0,0,1,0
3,1,701,0,0,0,1,C,3,0.1,0.1,0.4,1,0.0666666666666667,0,0,0,0,0,0
3,1,347,0,0,0,1,C,3,0.1,0.1,0.4,1,0.4,0,0,0,0,1,0
1,1,490,0,1,0,0,A,1,0.1,0.1,0.4,0,0.4,1,0,0,0,0,0
1,1,324,1,1,0,0,A,1,0.1,0.1,0.3,0,-0.0333333333333333,0,0,0,0,0,0
2,1,335,1,0,1,0,B,2,0.1,0.1,0.3,0,-0.0333333333333333,0,0,0,0,0,0
2,1,263,1,0,1,0,B,2,0.1,0.2,0.2,1,-0.133333333333333,0,0,0,0,0,0
3,1,330,1,0,0,1,C,3,0.1,0.3,0.1,0,-0.0333333333333333,0,0,0,0,0,0
2,1,429,0,0,1,0,B,2,0.1,0.2,0.2,1,0.2,0,1,0,0,0,0
1,1,312,1,1,0,0,A,1,0.1,0.2,0.1,0,-0.133333333333333,0,0,0,0,0,0
1,1,479,0,1,0,0,A,1,0.2,0.2,0.1,1,-0.133333333333333,0,0,0,0,1,0
2,1,318,0,0,1,0,B,2,0.2,0.2,0.1,1,0.2,1,0,0,0,0,0
3,1,350,0,0,0,1,C,3,0.2,0.2,0.1,0,0.2,1,0,0,0,0,0
3,1,242,0,0,0,1,C,3,0.2,0.2,0.1,0,0.2,0,0,0,0,1,0
3,1,127,0,0,0,1,C,3,0.2,0.2,0.1,0,-0.133333333333333,0,0,0,0,1,0
2,1,239,0,0,1,0,B,2,0.1,0.2,0.1,1,0.2,0,0,0,0,0,0
3,1,240,1,0,0,1,C,3,0.1,0.1,0.1,1,-0.233333333333333,0,0,0,0,0,0
2,1,331,0,0,1,0,B,2,0.1,0,0.2,0,0.2,0,1,1,0,0,0
3,1,321,0,0,0,1,C,3,0.1,0,0.1,1,0.1,0,0,0,0,0,0
1,1,361,0,1,0,0,A,1,0.1,0,0.1,1,0.1,1,0,0,0,0,0
1,1,351,0,1,0,0,A,1,0,0,0.1,0,0.1,0,0,0,0,1,0
1,1,313,1,1,0,0,A,1,0,0,0.1,0,-0.233333333333333,0,0,0,0,0,0
2,1,232,0,0,1,0,B,2,0.1,0,0.1,0,-0.233333333333333,0,1,0,0,0,0
1,1,394,0,1,0,0,A,1,0.1,0,0.1,1,0.1,0,0,0,0,0,0
3,1,315,0,0,0,1,C,3,0.1,0,0.1,1,0.1,1,0,0,0,0,0
1,1,366,0,1,0,0,A,1,0.1,0,0.1,1,0.1,1,0,0,0,0,0
1,1,498,0,1,0,0,A,1,0.1,0,0.1,1,0.1,0,0,0,0,1,0
3,1,343,0,0,0,1,C,3,0.1,0,0,0,0.1,1,0,0,0,0,0
1,1,323,0,1,0,0,A,1,0.1,0,0,1,-0.233333333333333,0,0,0,0,0,0
2,1,348,0,0,1,0,B,2,0.1,0,0,0,-0.233333333333333,1,0,0,0,0,0
3,1,351,0,0,0,1,C,3,0.1,0,0,0,-0.233333333333333,0,0,0,0,0,0
3,1,291,1,0,0,1,C,3,0.1,0,0,0,-0.233333333333333,0,0,0,0,0,0
2,1,364,0,0,1,0,B,2,0,0,0.1,0,-0.233333333333333,0,1,0,0,0,0
1,1,278,1,1,0,0,A,1,0,0,0.1,0,-0.233333333333333,0,0,0,0,0,0
3,1,365,1,0,0,1,C,3,0.1,0,0.1,1,-0.566666666666667,0,0,0,0,0,0
1,1,353,1,1,0,0,A,1,0.1,0,0.2,0,-0.133333333333333,0,0,0,0,0,0
3,1,397,1,0,0,1,C,3,0.2,0,0.2,1,-0.133333333333333,0,0,0,0,0,0
2,1,367,1,0,1,0,B,2,0.2,0,0.3,0,-0.366666666666667,0,0,0,0,0,0
1,1,304,1,1,0,0,A,1,0.2,0.1,0.3,0,-0.366666666666667,0,0,0,0,0,0
1,1,363,0,1,0,0,A,1,0.3,0.1,0.3,1,0.3,0,0,0,0,1,0
2,1,255,1,0,1,0,B,2,0.3,0.1,0.3,0,-0.366666666666667,0,0,0,0,0,0
3,1,277,0,0,0,1,C,3,0.3,0.2,0.3,1,0.3,0,1,0,0,0,0
3,1,296,1,0,0,1,C,3,0.3,0.2,0.2,0,-0.0333333333333333,0,0,0,0,0,0
1,1,351,1,1,0,0,A,1,0.3,0.2,0.3,1,-0.0333333333333333,0,0,0,0,0,0
3,1,435,1,0,0,1,C,3,0.3,0.2,0.3,1,-0.0333333333333333,0,0,0,0,0,0
3,1,478,1,0,0,1,C,3,0.3,0.2,0.3,1,-0.0333333333333333,0,0,0,0,0,0
3,1,450,0,0,0,1,C,3,0.2,0.2,0.4,1,0.0666666666666667,0,0,0,0,1,0
1,1,390,1,1,0,0,A,1,0.2,0.2,0.3,0,-0.0333333333333333,0,0,0,0,0,0
2,1,279,1,0,1,0,B,2,0.3,0.1,0.3,0,-0.0333333333333333,0,0,0,0,0,0
3,1,468,1,0,0,1,C,3,0.2,0.2,0.3,1,-0.0333333333333333,0,0,0,0,0,0
1,1,499,1,1,0,0,A,1,0.2,0.2,0.4,0,0.0666666666666667,0,0,0,0,0,0
2,1,510,0,0,1,0,B,2,0.3,0.1,0.4,0,0.4,0,1,0,0,0,0
1,1,313,1,1,0,0,A,1,0.3,0.1,0.4,0,0.0666666666666667,0,0,0,0,0,0
2,1,463,1,0,1,0,B,2,0.4,0.1,0.3,0,0.0666666666666667,0,0,0,0,0,0
1,1,375,1,1,0,0,A,1,0.3,0.2,0.3,1,-0.0333333333333333,0,0,0,0,0,0
2,1,397,1,0,1,0,B,2,0.4,0.2,0.2,0,0.0666666666666667,0,0,0,0,0,0
3,1,579,1,0,0,1,C,3,0.4,0.3,0.1,0,0.0666666666666667,0,0,0,0,0,0
1,1,371,1,1,0,0,A,1,0.4,0.3,0.2,1,0.0666666666666667,0,0,0,0,0,0
1,1,349,1,1,0,0,A,1,0.4,0.3,0.2,1,0.0666666666666667,0,0,0,0,0,0
3,1,535,0,0,0,1,C,3,0.5,0.2,0.2,0,-0.166666666666667,0,1,1,0,0,0
1,1,351,0,1,0,0,A,1,0.5,0.2,0.1,1,-0.166666666666667,0,0,0,0,0,0
2,1,374,0,0,1,0,B,2,0.4,0.2,0.1,0,0.4,1,0,0,0,0,0
2,1,273,0,0,1,0,B,2,0.4,0.2,0.1,0,-0.266666666666667,0,0,0,0,1,0
3,1,380,0,0,0,1,C,3,0.3,0.2,0.1,0,-0.366666666666667,0,0,0,0,0,0
2,1,890,0,0,1,0,B,2,0.3,0.1,0.1,0,0.3,0,0,0,0,0,0
2,1,344,0,0,1,0,B,2,0.2,0.1,0.1,0,0.2,0,0,0,0,1,0
3,1,657,1,0,0,1,C,3,0.2,0,0.1,0,-0.466666666666667,0,0,0,0,0,0
1,1,264,0,1,0,0,A,1,0.2,0,0.1,1,0.2,0,1,0,0,0,0
3,1,359,1,0,0,1,C,3,0.1,0,0.1,1,-0.566666666666667,0,0,0,0,0,0
3,1,317,1,0,0,1,C,3,0,0,0.2,1,-0.466666666666667,0,0,0,0,0,0
1,1,496,0,1,0,0,A,1,0,0,0.3,0,0.3,0,1,1,0,0,0
3,1,325,1,0,0,1,C,3,0,0,0.3,1,-0.366666666666667,0,0,0,0,0,0
2,1,389,0,0,1,0,B,2,0,0,0.4,0,0.0666666666666667,0,1,1,0,0,0
2,1,328,0,0,1,0,B,2,0,0,0.4,0,0.4,0,0,0,0,1,0
2,1,345,1,0,1,0,B,2,0,0,0.4,0,-0.266666666666667,0,0,0,0,0,0
1,1,357,1,1,0,0,A,1,0,0.1,0.4,0,-0.6,0,0,0,0,0,0
2,1,308,0,0,1,0,B,2,0.1,0.1,0.4,0,0.4,0,1,0,0,0,0
3,1,303,1,0,0,1,C,3,0.1,0.1,0.3,1,-0.7,0,0,0,0,0,0
2,1,389,0,0,1,0,B,2,0.1,0.1,0.4,0,0.4,0,1,1,0,0,0
3,1,385,1,0,0,1,C,3,0.1,0.1,0.3,1,-0.366666666666667,0,0,0,0,0,0
3,1,339,0,0,0,1,C,3,0.1,0.1,0.3,1,0.3,0,0,0,0,1,0
3,1,336,0,0,0,1,C,3,0.1,0.1,0.3,1,0.3,0,0,0,0,1,1
3,1,324,1,0,0,1,C,3,0.1,0.1,0.2,1,-0.466666666666667,0,0,0,0,0,0
1,1,381,1,1,0,0,A,1,0.1,0.1,0.3,0,-0.366666666666667,0,0,0,0,0,0
3,1,356,1,0,0,1,C,3,0.2,0.1,0.3,1,-0.366666666666667,0,0,0,0,0,0
1,1,380,1,1,0,0,A,1,0.2,0,0.4,0,-0.266666666666667,0,0,0,0,0,0
3,1,432,1,0,0,1,C,3,0.2,0,0.4,1,-0.266666666666667,0,0,0,0,0,0
1,1,473,1,1,0,0,A,1,0.2,0,0.5,0,-0.5,0,0,0,0,0,0
2,1,433,0,0,1,0,B,2,0.3,0,0.4,0,0.4,0,1,0,0,0,0
1,1,352,1,1,0,0,A,1,0.3,0,0.4,0,-0.266666666666667,0,0,0,0,0,0
1,1,451,0,1,0,0,A,1,0.4,0,0.3,1,0.4,0,0,0,0,1,0
2,1,354,0,0,1,0,B,2,0.4,0,0.3,0,0.0666666666666667,1,0,0,0,0,0
1,1,435,1,1,0,0,A,1,0.4,0,0.3,1,0.0666666666666667,0,0,0,0,0,0
1,1,430,0,1,0,0,A,1,0.5,0,0.2,1,0.166666666666667,0,0,0,0,1,0
2,1,409,0,0,1,0,B,2,0.4,0,0.2,0,0.0666666666666667,1,0,0,0,0,0
3,1,501,0,0,0,1,C,3,0.4,0,0.1,0,0.0666666666666667,0,0,0,0,0,0
2,1,517,0,0,1,0,B,2,0.3,0,0.1,0,-0.0333333333333333,0,0,0,0,0,0
1,1,375,0,1,0,0,A,1,0.3,0,0,1,-0.366666666666667,0,0,0,0,0,0
2,1,485,0,0,1,0,B,2,0.2,0,0,0,-0.133333333333333,1,0,0,0,0,0
2,1,298,1,0,1,0,B,2,0.2,0,0,0,-0.8,0,0,0,0,0,0
3,1,264,0,0,0,1,C,3,0.1,0.1,0,0,0.1,0,1,0,0,0,0
1,1,312,0,1,0,0,A,1,0.1,0.1,0,1,-0.233333333333333,0,0,0,0,0,0
3,1,372,0,0,0,1,C,3,0.1,0.1,0,0,-0.566666666666667,1,0,0,0,0,0
2,1,323,1,0,1,0,B,2,0,0.1,0,1,-0.566666666666667,0,0,0,0,0,0
2,1,446,1,0,1,0,B,2,0,0.2,0,1,-0.466666666666667,0,0,0,0,0,0
2,1,327,0,0,1,0,B,2,0,0.3,0,1,-0.366666666666667,0,0,0,0,1,1
3,1,458,0,0,0,1,C,3,0,0.3,0,0,-0.0333333333333333,1,0,0,0,0,0
1,1,310,0,1,0,0,A,1,0,0.3,0,0,-0.366666666666667,0,0,0,0,0,0
1,1,293,0,1,0,0,A,1,0,0.3,0,0,-0.0333333333333333,0,0,0,0,1,0
3,1,205,0,0,0,1,C,3,0,0.3,0,0,0.3,0,0,0,0,0,0
2,1,348,1,0,1,0,B,2,0,0.2,0,1,-0.466666666666667,0,0,0,0,0,0
1,1,317,1,1,0,0,A,1,0,0.3,0,0,-0.366666666666667,0,0,0,0,0,0
2,1,411,0,0,1,0,B,2,0.1,0.3,0,1,-0.0333333333333333,0,1,0,0,0,0
2,1,376,0,0,1,0,B,2,0.1,0.3,0,1,-0.0333333333333333,0,0,0,0,1,0
2,1,403,1,0,1,0,B,2,0.1,0.2,0,1,-0.8,0,0,0,0,0,0
1,1,319,0,1,0,0,A,1,0.1,0.2,0,0,-0.466666666666667,0,1,1,0,0,0
3,1,330,0,0,0,1,C,3,0.1,0.2,0,0,-0.133333333333333,0,0,0,0,0,0
3,1,314,1,0,0,1,C,3,0.1,0.2,0,0,-0.466666666666667,0,0,0,0,0,0
1,1,369,0,1,0,0,A,1,0.1,0.2,0.1,0,-0.133333333333333,0,1,0,0,0,0
1,1,315,0,1,0,0,A,1,0.1,0.2,0.1,0,-0.133333333333333,0,0,0,0,1,0
2,1,372,1,0,1,0,B,2,0.1,0.2,0.1,1,-0.8,0,0,0,0,0,0
2,1,351,1,0,1,0,B,2,0.1,0.2,0.1,1,-0.8,0,0,0,0,0,0
1,1,419,1,1,0,0,A,1,0,0.3,0.1,0,-0.366666666666667,0,0,0,0,0,0
2,1,316,0,0,1,0,B,2,0.1,0.3,0.1,1,0.3,0,1,0,0,0,0
2,1,297,0,0,1,0,B,2,0.1,0.3,0.1,1,-0.0333333333333333,0,0,0,0,1,0
1,1,346,0,1,0,0,A,1,0.1,0.2,0.1,0,-0.133333333333333,1,0,0,0,0,0
3,1,388,0,0,0,1,C,3,0.1,0.2,0.1,0,-0.133333333333333,0,0,0,0,0,0
2,1,399,0,0,1,0,B,2,0.1,0.2,0.1,1,-0.133333333333333,0,0,0,0,0,0
1,1,271,0,1,0,0,A,1,0.1,0.2,0,0,0.2,1,0,0,0,0,0
3,1,468,1,0,0,1,C,3,0.1,0.2,0,0,-0.466666666666667,0,0,0,0,0,0
3,1,330,1,0,0,1,C,3,0.1,0.2,0.1,0,-0.466666666666667,0,0,0,0,0,0
3,1,328,1,0,0,1,C,3,0.1,0.1,0.2,1,-0.133333333333333,0,0,0,0,0,0
3,1,303,1,0,0,1,C,3,0.1,0,0.3,1,-0.0333333333333333,0,0,0,0,0,0
1,1,324,0,1,0,0,A,1,0,0,0.4,0,0.4,0,1,1,0,0,0
3,1,321,1,0,0,1,C,3,0,0,0.4,1,0.0666666666666667,0,0,0,0,0,0
2,1,360,1,0,1,0,B,2,0,0,0.5,0,0.166666666666667,0,0,0,0,0,0
2,1,571,1,0,1,0,B,2,0,0.1,0.5,0,-0.5,0,0,0,0,0,0
3,1,318,1,0,0,1,C,3,0,0.2,0.5,1,0.166666666666667,0,0,0,0,0,0
3,1,295,1,0,0,1,C,3,0,0.2,0.6,1,-0.0666666666666667,0,0,0,0,0,0
2,1,304,1,0,1,0,B,2,0,0.2,0.7,0,0.366666666666667,0,0,0,0,0,0
3,1,267,1,0,0,1,C,3,0,0.3,0.6,1,-0.0666666666666667,0,0,0,0,0,0
2,1,358,0,0,1,0,B,2,0,0.3,0.6,0,0.266666666666667,0,1,1,0,0,0
3,1,430,1,0,0,1,C,3,0,0.3,0.5,1,0.166666666666667,0,0,0,0,0,0
3,1,292,0,0,0,1,C,3,0,0.3,0.5,1,0.166666666666667,0,0,0,0,1,0
2,1,441,1,0,1,0,B,2,0,0.3,0.5,0,-0.5,0,0,0,0,0,0
2,1,451,1,0,1,0,B,2,0,0.4,0.4,1,-0.266666666666667,0,0,0,0,0,0
2,1,400,1,0,1,0,B,2,0,0.4,0.4,1,0.0666666666666667,0,0,0,0,0,0
2,1,483,1,0,1,0,B,2,0,0.4,0.4,1,-0.266666666666667,0,0,0,0,0,0
3,1,517,1,0,0,1,C,3,0,0.5,0.3,0,0.166666666666667,0,0,0,0,0,0
2,1,362,1,0,1,0,B,2,0,0.5,0.3,1,-0.166666666666667,0,0,0,0,0,0
3,1,520,0,0,0,1,C,3,0,0.5,0.3,0,0.5,0,1,1,0,0,0
2,1,310,1,0,1,0,B,2,0,0.5,0.2,1,-0.5,0,0,0,0,0,0
2,1,352,1,0,1,0,B,2,0,0.6,0.2,1,0.266666666666667,0,0,0,0,0,0
3,1,340,0,0,0,1,C,3,0,0.7,0.1,0,0.7,0,1,1,0,0,0
3,1,350,1,0,0,1,C,3,0,0.7,0.1,0,0.366666666666667,0,0,0,0,0,0
2,1,365,1,0,1,0,B,2,0,0.6,0.2,1,-0.0666666666666667,0,0,0,0,0,0
3,1,372,1,0,0,1,C,3,0,0.6,0.2,0,-0.0666666666666667,0,0,0,0,0,0
2,1,343,0,0,1,0,B,2,0,0.5,0.3,1,0.166666666666667,0,1,0,1,0,0
2,1,282,1,0,1,0,B,2,0,0.4,0.3,1,0.0666666666666667,0,0,0,0,0,0
2,1,341,1,0,1,0,B,2,0,0.5,0.2,1,0.166666666666667,0,0,0,0,0,0
3,1,328,0,0,0,1,C,3,0,0.5,0.2,0,-0.166666666666667,0,1,1,0,0,0
2,1,353,1,0,1,0,B,2,0,0.5,0.2,1,0.166666666666667,0,0,0,0,0,0
1,1,388,1,1,0,0,A,1,0,0.5,0.2,0,0.166666666666667,0,0,0,0,0,0
2,1,425,0,0,1,0,B,2,0.1,0.4,0.2,1,0.4,0,1,0,1,0,0
3,1,366,1,0,0,1,C,3,0.1,0.4,0.2,0,0.0666666666666667,0,0,0,0,0,0
3,1,349,1,0,0,1,C,3,0.1,0.4,0.2,0,0.0666666666666667,0,0,0,0,0,0
2,1,354,1,0,1,0,B,2,0.1,0.3,0.3,1,-0.366666666666667,0,0,0,0,0,0
2,1,312,1,0,1,0,B,2,0.1,0.4,0.2,1,-0.6,0,0,0,0,0,0
1,1,332,1,1,0,0,A,1,0.1,0.5,0.2,0,0.166666666666667,0,0,0,0,0,0
2,1,339,1,0,1,0,B,2,0.2,0.4,0.2,1,-0.266666666666667,0,0,0,0,0,0
3,1,314,1,0,0,1,C,3,0.2,0.4,0.2,0,-0.266666666666667,0,0,0,0,0,0
2,1,371,1,0,1,0,B,2,0.2,0.4,0.3,1,0.0666666666666667,0,0,0,0,0,0
1,1,330,1,1,0,0,A,1,0.2,0.4,0.3,0,0.0666666666666667,0,0,0,0,0,0
3,1,333,1,0,0,1,C,3,0.2,0.4,0.3,0,-0.266666666666667,0,0,0,0,0,0
2,1,320,1,0,1,0,B,2,0.2,0.4,0.4,1,-0.266666666666667,0,0,0,0,0,0
3,1,351,1,0,0,1,C,3,0.2,0.5,0.3,0,-0.166666666666667,0,0,0,0,0,0
2,1,291,1,0,1,0,B,2,0.2,0.5,0.3,1,-0.166666666666667,0,0,0,0,0,0
1,1,580,1,1,0,0,A,1,0.2,0.5,0.3,0,0.166666666666667,0,0,0,0,0,0
1,1,332,1,1,0,0,A,1,0.3,0.4,0.3,0,-0.266666666666667,0,0,0,0,0,0
3,1,335,1,0,0,1,C,3,0.3,0.4,0.3,0,-0.266666666666667,0,0,0,0,0,0
1,1,317,1,1,0,0,A,1,0.3,0.3,0.4,0,-0.266666666666667,0,0,0,0,0,0
2,1,338,0,0,1,0,B,2,0.4,0.3,0.3,0,0.4,0,1,0,0,0,0
1,1,332,1,1,0,0,A,1,0.4,0.2,0.3,1,-0.266666666666667,0,0,0,0,0,0
2,1,378,1,0,1,0,B,2,0.4,0.2,0.3,0,-0.266666666666667,0,0,0,0,0,0
1,1,321,0,1,0,0,A,1,0.4,0.3,0.2,1,0.4,0,1,0,1,0,0
3,1,316,1,0,0,1,C,3,0.4,0.2,0.2,0,-0.266666666666667,0,0,0,0,0,0
1,1,313,1,1,0,0,A,1,0.4,0.2,0.2,1,0.0666666666666667,0,0,0,0,0,0
3,1,304,0,0,0,1,C,3,0.5,0.1,0.2,0,0.5,0,1,1,0,0,0
2,1,394,1,0,1,0,B,2,0.4,0.1,0.2,0,0.0666666666666667,0,0,0,0,0,0
2,1,336,1,0,1,0,B,2,0.3,0.2,0.2,0,-0.7,0,0,0,0,0,0
1,1,306,1,1,0,0,A,1,0.3,0.3,0.1,1,-0.0333333333333333,0,0,0,0,0,0
3,1,355,1,0,0,1,C,3,0.3,0.3,0.1,0,-0.366666666666667,0,0,0,0,0,0
3,1,297,1,0,0,1,C,3,0.3,0.3,0.2,0,-0.366666666666667,0,0,0,0,0,0
2,1,357,1,0,1,0,B,2,0.2,0.3,0.3,1,-0.0333333333333333,0,0,0,0,0,0
3,1,639,0,0,0,1,C,3,0.2,0.3,0.3,1,-0.0333333333333333,0,1,1,0,0,0
1,1,406,1,1,0,0,A,1,0.2,0.3,0.3,0,-0.366666666666667,0,0,0,0,0,0
2,1,421,1,0,1,0,B,2,0.3,0.3,0.2,1,-0.366666666666667,0,0,0,0,0,0
3,1,318,1,0,0,1,C,3,0.2,0.4,0.2,0,0.0666666666666667,0,0,0,0,0,0
2,1,353,0,0,1,0,B,2,0.2,0.4,0.3,1,0.0666666666666667,0,1,0,1,0,0
3,1,284,1,0,0,1,C,3,0.2,0.3,0.3,1,-0.0333333333333333,0,0,0,0,0,0
1,1,320,1,1,0,0,A,1,0.2,0.2,0.4,0,-0.6,0,0,0,0,0,0
3,1,311,0,0,0,1,C,3,0.2,0.2,0.4,1,0.4,0,1,0,1,0,0
3,1,298,1,0,0,1,C,3,0.2,0.2,0.3,1,-0.0333333333333333,0,0,0,0,0,0
3,1,287,1,0,0,1,C,3,0.2,0.2,0.3,1,-0.366666666666667,0,0,0,0,0,0
1,1,318,1,1,0,0,A,1,0.2,0.1,0.4,0,0.0666666666666667,0,0,0,0,0,0
2,1,316,1,0,1,0,B,2,0.3,0.1,0.4,0,0.0666666666666667,0,0,0,0,0,0
2,1,357,1,0,1,0,B,2,0.2,0.2,0.4,0,-0.6,0,0,0,0,0,0
3,1,493,0,0,0,1,C,3,0.2,0.2,0.4,1,0.4,0,1,0,1,0,0
3,1,389,1,0,0,1,C,3,0.2,0.2,0.3,1,-0.0333333333333333,0,0,0,0,0,0
