choice_numeric_unfiltered,trial_filter,stim_RT,stim_ACC,achoice,bchoice,cchoice,stim_choice,stim_choice_numeric,prob_1,prob_2,prob_3,best_choice,above_chance_diff,prob_switch_err,spont_switch_err,erratic_spont,explore_switch,error_NOS,perseverative
3,1,10331,0,0,0,1,C,3,NaN,NaN,NaN,0,NaN,0,0,0,0,0,0
2,1,5199,0,0,1,0,B,2,0,0,0,1,0,0,0,0,0,0,0
1,1,2662,0,1,0,0,A,1,0,0,0,1,-0.333333333333333,1,0,0,0,0,0
3,1,3998,0,0,0,1,C,3,0,0,0,1,-0.333333333333333,1,0,0,0,0,0
2,1,6112,1,0,1,0,B,2,0,0,0,1,-0.666666666666667,0,0,0,0,0,0
2,1,6305,1,0,1,0,B,2,0,0.2,0,1,-0.466666666666667,0,0,0,0,0,0
3,1,3094,0,0,0,1,C,3,0,0.333333333333333,0,0,0.333333333333333,0,1,1,0,0,0
2,1,899,1,0,1,0,B,2,0,0.285714285714286,0,1,-0.0476190476190476,0,0,0,0,0,0
2,1,2543,1,0,1,0,B,2,0,0.375,0,1,0.0416666666666667,0,0,0,0,0,0
1,1,720,1,1,0,0,A,1,0,0.444444444444444,0,0,0.111111111111111,0,0,0,0,0,0
1,1,1231,1,1,0,0,A,1,0.1,0.4,0,0,0.0666666666666667,0,0,0,0,0,0
1,1,768,1,1,0,0,A,1,0.2,0.4,0,0,0.0666666666666667,0,0,0,0,0,0
3,1,380,0,0,0,1,C,3,0.3,0.4,0,0,0.0666666666666667,0,1,0,0,0,0
3,1,675,0,0,0,1,C,3,0.3,0.4,0,0,0.4,0,0,0,0,1,0
2,1,1032,1,0,1,0,B,2,0.3,0.4,0,1,-0.266666666666667,0,0,0,0,0,0
2,1,624,1,0,1,0,B,2,0.3,0.4,0,1,0.0666666666666667,0,0,0,0,0,0
3,1,601,1,0,0,1,C,3,0.3,0.4,0,0,0.0666666666666667,0,0,0,0,0,0
1,1,680,1,1,0,0,A,1,0.3,0.4,0.1,0,0.0666666666666667,0,0,0,0,0,0
2,1,813,1,0,1,0,B,2,0.4,0.3,0.1,0,-0.266666666666667,0,0,0,0,0,0
1,1,668,1,1,0,0,A,1,0.4,0.3,0.1,1,0.0666666666666667,0,0,0,0,0,0
3,1,847,1,0,0,1,C,3,0.4,0.3,0.1,0,0.0666666666666667,0,0,0,0,0,0
2,1,640,0,0,1,0,B,2,0.3,0.3,0.2,1,0.3,0,1,0,0,0,0
3,1,714,1,0,0,1,C,3,0.2,0.3,0.2,0,-0.0333333333333333,0,0,0,0,0,0
3,1,962,0,0,0,1,C,3,0.2,0.3,0.3,1,0.3,0,0,0,0,1,0
1,1,641,1,1,0,0,A,1,0.2,0.3,0.3,0,-0.366666666666667,0,0,0,0,0,0
1,1,972,1,1,0,0,A,1,0.3,0.2,0.3,1,-0.0333333333333333,0,0,0,0,0,0
1,1,771,1,1,0,0,A,1,0.4,0.1,0.3,1,0.0666666666666667,0,0,0,0,0,0
2,1,803,1,0,1,0,B,2,0.5,0.1,0.2,0,0.166666666666667,0,0,0,0,0,0
1,1,517,1,1,0,0,A,1,0.4,0.2,0.2,1,0.0666666666666667,0,0,0,0,0,0
3,1,792,1,0,0,1,C,3,0.5,0.1,0.2,0,0.166666666666667,0,0,0,0,0,0
3,1,843,1,0,0,1,C,3,0.4,0.1,0.3,0,0.0666666666666667,0,0,0,0,0,0
1,1,402,0,1,0,0,A,1,0.4,0.1,0.3,1,0.4,0,1,0,1,0,0
2,1,1285,0,0,1,0,B,2,0.4,0.1,0.3,0,0.0666666666666667,1,0,0,0,0,0
3,1,633,0,0,0,1,C,3,0.4,0.1,0.2,0,0.0666666666666667,0,0,0,0,0,0
3,1,756,0,0,0,1,C,3,0.4,0.1,0.2,0,0.4,0,0,0,0,1,0
3,1,1264,0,0,0,1,C,3,0.3,0.1,0.2,0,0.3,0,0,0,0,1,0
1,1,1269,0,1,0,0,A,1,0.2,0.1,0.2,1,0.2,0,0,0,0,0,0
3,1,641,0,0,0,1,C,3,0.1,0.1,0.2,1,0.2,1,0,0,0,0,0
1,1,3114,1,1,0,0,A,1,0.1,0,0.2,0,-0.133333333333333,0,0,0,0,0,0
1,1,625,0,1,0,0,A,1,0.1,0,0.2,0,0.2,0,0,0,0,1,0
1,1,834,0,1,0,0,A,1,0.1,0,0.1,1,0.1,0,0,0,0,1,0
1,1,507,0,1,0,0,A,1,0.1,0,0,1,-0.233333333333333,0,0,0,0,1,0
2,1,467,0,0,1,0,B,2,0.1,0,0,0,0.1,1,0,0,0,0,0
1,1,565,0,1,0,0,A,1,0.1,0,0,1,0.1,0,0,0,0,0,0
2,1,1114,1,0,1,0,B,2,0.1,0,0,0,-0.566666666666667,0,0,0,0,0,0
2,1,788,0,0,1,0,B,2,0.1,0.1,0,1,-0.233333333333333,0,0,0,0,1,0
2,1,1134,0,0,1,0,B,2,0.1,0.1,0,1,0.1,0,0,0,0,1,0
1,1,485,0,1,0,0,A,1,0.1,0.1,0,1,-0.233333333333333,1,0,0,0,0,0
2,1,1991,0,0,1,0,B,2,0.1,0.1,0,1,-0.233333333333333,1,0,0,0,0,0
2,1,573,0,0,1,0,B,2,0,0.1,0,1,0.1,0,0,0,0,1,0
2,1,710,0,0,1,0,B,2,0,0.1,0,1,-0.233333333333333,0,0,0,0,1,1
2,1,795,0,0,1,0,B,2,0,0.1,0,1,0.1,0,0,0,0,1,1
2,1,739,0,0,1,0,B,2,0,0.1,0,1,0.1,0,0,0,0,1,1
2,1,1969,0,0,1,0,B,2,0,0.1,0,1,0.1,0,0,0,0,1,1
2,1,667,0,0,1,0,B,2,0,0.1,0,1,0.1,0,0,0,0,1,1
3,1,404,0,0,0,1,C,3,0,0,0,1,-0.333333333333333,1,0,0,0,0,0
3,1,681,0,0,0,1,C,3,0,0,0,1,0,0,0,0,0,1,0
3,1,694,0,0,0,1,C,3,0,0,0,1,0,0,0,0,0,1,1
1,1,1321,0,1,0,0,A,1,0,0,0,1,0,1,0,0,0,0,0
3,1,925,0,0,0,1,C,3,0,0,0,1,0,1,0,0,0,0,0
3,1,1385,1,0,0,1,C,3,0,0,0,1,-0.666666666666667,0,0,0,0,0,0
3,1,1355,1,0,0,1,C,3,0,0,0.1,1,-0.566666666666667,0,0,0,0,0,0
3,1,559,1,0,0,1,C,3,0,0,0.2,1,-0.133333333333333,0,0,0,0,0,0
3,1,717,1,0,0,1,C,3,0,0,0.3,1,-0.0333333333333333,0,0,0,0,0,0
2,1,523,0,0,1,0,B,2,0,0,0.4,0,0.0666666666666667,0,1,1,0,0,0
2,1,915,1,0,1,0,B,2,0,0,0.4,0,0.0666666666666667,0,0,0,0,0,0
2,1,543,1,0,1,0,B,2,0,0.1,0.4,0,0.0666666666666667,0,0,0,0,0,0
2,1,496,1,0,1,0,B,2,0,0.2,0.4,0,0.0666666666666667,0,0,0,0,0,0
3,1,580,1,0,0,1,C,3,0,0.3,0.4,1,0.0666666666666667,0,0,0,0,0,0
1,1,530,1,1,0,0,A,1,0,0.3,0.5,0,0.166666666666667,0,0,0,0,0,0
1,1,623,1,1,0,0,A,1,0.1,0.3,0.5,0,0.166666666666667,0,0,0,0,0,0
2,1,540,0,0,1,0,B,2,0.2,0.3,0.4,0,0.4,0,1,0,0,0,0
1,1,401,0,1,0,0,A,1,0.2,0.3,0.3,0,-0.0333333333333333,0,0,0,0,0,0
2,1,599,1,0,1,0,B,2,0.2,0.3,0.2,1,-0.0333333333333333,0,0,0,0,0,0
2,1,1034,1,0,1,0,B,2,0.2,0.4,0.1,1,0.0666666666666667,0,0,0,0,0,0
2,1,509,1,0,1,0,B,2,0.2,0.5,0.1,1,0.166666666666667,0,0,0,0,0,0
1,1,483,1,1,0,0,A,1,0.2,0.5,0.1,0,0.166666666666667,0,0,0,0,0,0
2,1,520,1,0,1,0,B,2,0.3,0.4,0.1,1,0.0666666666666667,0,0,0,0,0,0
1,1,577,1,1,0,0,A,1,0.3,0.4,0.1,0,0.0666666666666667,0,0,0,0,0,0
3,1,797,1,0,0,1,C,3,0.4,0.4,0,0,0.0666666666666667,0,0,0,0,0,0
2,1,479,0,0,1,0,B,2,0.3,0.4,0.1,1,0.4,0,1,0,1,0,0
1,1,542,1,1,0,0,A,1,0.2,0.4,0.1,0,0.0666666666666667,0,0,0,0,0,0
2,1,400,0,0,1,0,B,2,0.3,0.4,0.1,1,0.4,0,1,0,1,0,0
3,1,716,0,0,0,1,C,3,0.3,0.4,0.1,0,0.4,1,0,0,0,0,0
3,1,585,1,0,0,1,C,3,0.3,0.3,0.1,0,-0.366666666666667,0,0,0,0,0,0
1,1,440,1,1,0,0,A,1,0.3,0.2,0.2,1,-0.0333333333333333,0,0,0,0,0,0
3,1,673,1,0,0,1,C,3,0.4,0.1,0.2,0,0.0666666666666667,0,0,0,0,0,0
3,1,768,1,0,0,1,C,3,0.3,0.1,0.3,1,-0.0333333333333333,0,0,0,0,0,0
2,1,479,1,0,1,0,B,2,0.3,0,0.4,0,0.0666666666666667,0,0,0,0,0,0
3,1,496,1,0,0,1,C,3,0.2,0.1,0.4,1,-0.266666666666667,0,0,0,0,0,0
1,1,589,0,1,0,0,A,1,0.2,0.1,0.4,0,0.4,0,1,1,0,0,0
1,1,506,0,1,0,0,A,1,0.2,0.1,0.4,0,0.4,0,0,0,0,1,0
3,1,504,0,0,0,1,C,3,0.1,0.1,0.4,1,0.0666666666666667,0,0,0,0,0,0
3,1,553,0,0,0,1,C,3,0.1,0.1,0.4,1,0.4,0,0,0,0,1,0
1,1,553,0,1,0,0,A,1,0.1,0.1,0.4,0,0.4,1,0,0,0,0,0
1,1,517,0,1,0,0,A,1,0.1,0.1,0.3,0,-0.0333333333333333,0,0,0,0,1,0
3,1,1103,0,0,0,1,C,3,0,0.1,0.3,1,-0.0333333333333333,0,0,0,0,0,0
1,1,565,1,1,0,0,A,1,0,0.1,0.2,0,-0.133333333333333,0,0,0,0,0,0
3,1,974,1,0,0,1,C,3,0.1,0.1,0.1,1,-0.233333333333333,0,0,0,0,0,0
2,1,502,0,0,1,0,B,2,0.1,0,0.2,0,0.2,0,1,1,0,0,0
1,1,440,1,1,0,0,A,1,0.1,0,0.1,1,-0.233333333333333,0,0,0,0,0,0
1,1,434,0,1,0,0,A,1,0.2,0,0.1,1,-0.133333333333333,0,0,0,0,1,0
2,1,2169,0,0,1,0,B,2,0.2,0,0.1,0,0.2,1,0,0,0,0,0
3,1,767,0,0,0,1,C,3,0.2,0,0.1,0,0.2,0,0,0,0,0,0
3,1,568,0,0,0,1,C,3,0.2,0,0.1,0,0.2,0,0,0,0,1,0
3,1,640,0,0,0,1,C,3,0.2,0,0.1,0,-0.133333333333333,0,0,0,0,1,0
1,1,1176,0,1,0,0,A,1,0.2,0,0.1,1,0.2,0,0,0,0,0,0
3,1,560,1,0,0,1,C,3,0.2,0,0.1,0,-0.133333333333333,0,0,0,0,0,0
2,1,596,0,0,1,0,B,2,0.1,0,0.2,0,0.2,0,1,0,0,0,0
3,1,1214,0,0,0,1,C,3,0.1,0,0.1,1,0.1,0,0,0,0,0,0
1,1,1236,0,1,0,0,A,1,0.1,0,0.1,1,0.1,1,0,0,0,0,0
1,1,749,0,1,0,0,A,1,0,0,0.1,0,0.1,0,0,0,0,1,0
3,1,649,0,0,0,1,C,3,0,0,0.1,1,-0.233333333333333,0,0,0,0,0,0
1,1,603,0,1,0,0,A,1,0,0,0.1,0,-0.233333333333333,1,0,0,0,0,0
1,1,745,0,1,0,0,A,1,0,0,0.1,0,0.1,0,0,0,0,1,0
1,1,469,0,1,0,0,A,1,0,0,0.1,0,0.1,0,0,0,0,1,0
2,1,618,0,0,1,0,B,2,0,0,0.1,0,0.1,0,0,0,0,0,0
1,1,610,0,1,0,0,A,1,0,0,0.1,0,0.1,0,0,0,0,0,0
2,1,780,0,0,1,0,B,2,0,0,0,1,0,0,0,0,0,0,0
3,1,542,1,0,0,1,C,3,0,0,0,1,-0.333333333333333,0,0,0,0,0,0
1,1,1591,1,1,0,0,A,1,0,0,0.1,0,-0.233333333333333,0,0,0,0,0,0
2,1,484,1,0,1,0,B,2,0.1,0,0.1,0,-0.233333333333333,0,0,0,0,0,0
1,1,462,1,1,0,0,A,1,0.1,0.1,0.1,1,-0.233333333333333,0,0,0,0,0,0
2,1,312,1,0,1,0,B,2,0.2,0.1,0.1,0,-0.133333333333333,0,0,0,0,0,0
2,1,204,0,0,1,0,B,2,0.2,0.2,0.1,1,-0.133333333333333,0,0,0,0,1,0
2,1,237,1,0,1,0,B,2,0.2,0.2,0.1,1,-0.466666666666667,0,0,0,0,0,0
3,1,234,0,0,0,1,C,3,0.2,0.3,0.1,0,-0.0333333333333333,0,1,1,0,0,0
1,1,234,1,1,0,0,A,1,0.2,0.3,0.1,0,-0.0333333333333333,0,0,0,0,0,0
2,1,747,1,0,1,0,B,2,0.3,0.3,0.1,1,-0.366666666666667,0,0,0,0,0,0
2,1,240,1,0,1,0,B,2,0.3,0.4,0.1,1,-0.266666666666667,0,0,0,0,0,0
2,1,370,0,0,1,0,B,2,0.3,0.5,0,1,0.5,0,0,0,0,1,0
3,1,314,0,0,0,1,C,3,0.2,0.5,0,0,-0.166666666666667,1,0,0,0,0,0
1,1,133,0,1,0,0,A,1,0.2,0.4,0,0,0.4,0,0,0,0,0,0
3,1,654,1,0,0,1,C,3,0.1,0.4,0,0,0.0666666666666667,0,0,0,0,0,0
1,1,244,1,1,0,0,A,1,0.1,0.3,0.1,0,-0.0333333333333333,0,0,0,0,0,0
3,1,328,0,0,0,1,C,3,0.2,0.3,0.1,0,-0.0333333333333333,0,1,0,0,0,0
2,1,284,0,0,1,0,B,2,0.2,0.2,0.1,1,-0.133333333333333,0,0,0,0,0,0
1,1,279,1,1,0,0,A,1,0.2,0.2,0.1,1,-0.133333333333333,0,0,0,0,0,0
3,1,1610,0,0,0,1,C,3,0.2,0.2,0.1,0,-0.133333333333333,0,1,1,0,0,0
3,1,1325,1,0,0,1,C,3,0.2,0.1,0.1,0,-0.133333333333333,0,0,0,0,0,0
3,1,3157,0,0,0,1,C,3,0.2,0,0.2,1,-0.133333333333333,0,0,0,0,1,0
3,1,968,0,0,0,1,C,3,0.2,0,0.2,1,-0.133333333333333,0,0,0,0,1,0
1,1,1639,0,1,0,0,A,1,0.2,0,0.2,1,0.2,1,0,0,0,0,0
2,1,407,0,0,1,0,B,2,0.2,0,0.2,0,-0.133333333333333,1,0,0,0,0,0
1,1,559,0,1,0,0,A,1,0.2,0,0.1,1,-0.133333333333333,0,0,0,0,0,0
2,1,977,0,0,1,0,B,2,0.1,0,0.1,0,-0.233333333333333,1,0,0,0,0,0
3,1,736,0,0,0,1,C,3,0.1,0,0.1,1,-0.233333333333333,0,0,0,0,0,0
2,1,1325,0,0,1,0,B,2,0.1,0,0.1,0,-0.233333333333333,1,0,0,0,0,0
2,1,1015,1,0,1,0,B,2,0,0,0.1,0,-0.233333333333333,0,0,0,0,0,0
1,1,798,1,1,0,0,A,1,0,0.1,0.1,0,-0.233333333333333,0,0,0,0,0,0
3,1,913,0,0,0,1,C,3,0.1,0.1,0,0,-0.566666666666667,0,1,0,0,0,0
1,1,992,1,1,0,0,A,1,0.1,0.1,0,1,-0.566666666666667,0,0,0,0,0,0
3,1,270,0,0,0,1,C,3,0.2,0.1,0,0,0.2,0,1,1,0,0,0
1,1,2346,1,1,0,0,A,1,0.2,0.1,0,1,-0.466666666666667,0,0,0,0,0,0
1,1,571,1,1,0,0,A,1,0.3,0.1,0,1,-0.366666666666667,0,0,0,0,0,0
1,1,554,0,1,0,0,A,1,0.4,0.1,0,1,0.4,0,0,0,0,1,0
3,1,601,0,0,0,1,C,3,0.4,0.1,0,0,0.4,1,0,0,0,0,0
2,1,613,1,0,1,0,B,2,0.4,0.1,0,0,-0.266666666666667,0,0,0,0,0,0
2,1,2261,0,0,1,0,B,2,0.4,0.2,0,0,0.4,0,0,0,0,1,0
3,1,558,1,0,0,1,C,3,0.4,0.1,0,0,-0.266666666666667,0,0,0,0,0,0
2,1,891,1,0,1,0,B,2,0.3,0.1,0.1,0,-0.366666666666667,0,0,0,0,0,0
2,1,1833,0,0,1,0,B,2,0.3,0.2,0.1,0,0.3,0,0,0,0,1,0
1,1,727,1,1,0,0,A,1,0.2,0.2,0.1,1,-0.466666666666667,0,0,0,0,0,0
1,1,594,0,1,0,0,A,1,0.3,0.2,0.1,1,-0.0333333333333333,0,0,0,0,1,0
1,1,545,0,1,0,0,A,1,0.2,0.2,0.1,1,0.2,0,0,0,0,1,1
3,1,1188,1,0,0,1,C,3,0.1,0.2,0.1,0,-0.466666666666667,0,0,0,0,0,0
3,1,383,1,0,0,1,C,3,0.1,0.2,0.2,1,-0.8,0,0,0,0,0,0
1,1,663,0,1,0,0,A,1,0.1,0.2,0.3,0,0.3,0,1,1,0,0,0
1,1,370,1,1,0,0,A,1,0.1,0.1,0.3,0,-0.7,0,0,0,0,0,0
1,1,459,0,1,0,0,A,1,0.2,0.1,0.3,0,0.3,0,0,0,0,1,0
2,1,341,1,0,1,0,B,2,0.2,0.1,0.2,0,-0.466666666666667,0,0,0,0,0,0
2,1,539,0,0,1,0,B,2,0.2,0.1,0.2,0,0.2,0,0,0,0,1,0
2,1,515,0,0,1,0,B,2,0.2,0.1,0.2,0,0.2,0,0,0,0,1,0
2,1,1641,0,0,1,0,B,2,0.1,0.1,0.2,0,-0.466666666666667,0,0,0,0,1,0
2,1,1242,1,0,1,0,B,2,0.1,0.1,0.2,0,-0.466666666666667,0,0,0,0,0,0
2,1,441,1,0,1,0,B,2,0.1,0.2,0.2,1,-0.466666666666667,0,0,0,0,0,0
2,1,423,1,0,1,0,B,2,0.1,0.3,0.1,1,-0.366666666666667,0,0,0,0,0,0
1,1,370,1,1,0,0,A,1,0.1,0.4,0,0,-0.266666666666667,0,0,0,0,0,0
3,1,385,1,0,0,1,C,3,0.2,0.4,0,0,-0.6,0,0,0,0,0,0
3,1,295,0,0,0,1,C,3,0.1,0.4,0.1,0,0.4,0,0,0,0,1,0
3,1,395,1,0,0,1,C,3,0.1,0.4,0.1,0,-0.266666666666667,0,0,0,0,0,0
3,1,248,0,0,0,1,C,3,0.1,0.3,0.2,0,0.3,0,0,0,0,1,0
1,1,602,1,1,0,0,A,1,0.1,0.3,0.2,0,-0.0333333333333333,0,0,0,0,0,0
3,1,475,0,0,0,1,C,3,0.2,0.3,0.2,0,-0.0333333333333333,0,1,0,0,0,0
2,1,352,1,0,1,0,B,2,0.2,0.3,0.2,1,-0.0333333333333333,0,0,0,0,0,0
1,1,572,1,1,0,0,A,1,0.2,0.3,0.2,0,-0.0333333333333333,0,0,0,0,0,0
2,1,443,1,0,1,0,B,2,0.3,0.2,0.2,0,-0.0333333333333333,0,0,0,0,0,0
3,1,389,1,0,0,1,C,3,0.3,0.2,0.2,0,-0.0333333333333333,0,0,0,0,0,0
3,1,361,1,0,0,1,C,3,0.2,0.2,0.3,1,-0.366666666666667,0,0,0,0,0,0
3,1,352,1,0,0,1,C,3,0.2,0.2,0.3,1,-0.0333333333333333,0,0,0,0,0,0
1,1,411,1,1,0,0,A,1,0.2,0.2,0.4,0,-0.6,0,0,0,0,0,0
2,1,458,0,0,1,0,B,2,0.3,0.2,0.3,0,0.3,0,1,0,0,0,0
3,1,442,0,0,0,1,C,3,0.3,0.2,0.3,1,-0.0333333333333333,0,0,0,0,0,0
2,1,342,1,0,1,0,B,2,0.2,0.2,0.3,0,-0.366666666666667,0,0,0,0,0,0
1,1,437,1,1,0,0,A,1,0.2,0.3,0.3,0,-0.366666666666667,0,0,0,0,0,0
3,1,375,1,0,0,1,C,3,0.3,0.2,0.3,1,-0.366666666666667,0,0,0,0,0,0
1,1,473,1,1,0,0,A,1,0.2,0.2,0.4,0,-0.266666666666667,0,0,0,0,0,0
2,1,452,1,0,1,0,B,2,0.3,0.1,0.4,0,0.0666666666666667,0,0,0,0,0,0
2,1,488,1,0,1,0,B,2,0.3,0.2,0.3,0,-0.366666666666667,0,0,0,0,0,0
3,1,490,1,0,0,1,C,3,0.3,0.3,0.2,0,-0.0333333333333333,0,0,0,0,0,0
2,1,397,0,0,1,0,B,2,0.3,0.3,0.2,1,0.3,0,1,0,0,0,0
1,1,432,1,1,0,0,A,1,0.2,0.3,0.2,0,-0.366666666666667,0,0,0,0,0,0
2,1,456,1,0,1,0,B,2,0.3,0.3,0.2,1,-0.366666666666667,0,0,0,0,0,0
1,1,441,1,1,0,0,A,1,0.3,0.4,0.2,0,0.0666666666666667,0,0,0,0,0,0
1,1,465,1,1,0,0,A,1,0.4,0.3,0.2,1,0.0666666666666667,0,0,0,0,0,0
3,1,257,1,0,0,1,C,3,0.4,0.3,0.2,0,-0.6,0,0,0,0,0,0
2,1,409,1,0,1,0,B,2,0.4,0.3,0.2,0,-0.266666666666667,0,0,0,0,0,0
2,1,327,0,0,1,0,B,2,0.3,0.4,0.2,1,0.0666666666666667,0,0,0,0,1,0
1,1,459,1,1,0,0,A,1,0.3,0.3,0.2,1,-0.366666666666667,0,0,0,0,0,0
2,1,507,1,0,1,0,B,2,0.4,0.2,0.2,0,0.0666666666666667,0,0,0,0,0,0
2,1,445,1,0,1,0,B,2,0.4,0.3,0.1,0,0.0666666666666667,0,0,0,0,0,0
3,1,469,1,0,0,1,C,3,0.4,0.4,0.1,0,-0.6,0,0,0,0,0,0
1,1,562,1,1,0,0,A,1,0.3,0.4,0.2,0,-0.6,0,0,0,0,0,0
2,1,488,1,0,1,0,B,2,0.4,0.3,0.2,0,-0.266666666666667,0,0,0,0,0,0
3,1,442,0,0,0,1,C,3,0.3,0.4,0.2,0,0.4,0,1,0,0,0,0
3,1,392,1,0,0,1,C,3,0.2,0.4,0.2,0,0.0666666666666667,0,0,0,0,0,0
3,1,397,0,0,0,1,C,3,0.2,0.4,0.2,0,0.0666666666666667,0,0,0,0,1,0
2,1,542,1,0,1,0,B,2,0.2,0.3,0.2,1,-0.0333333333333333,0,0,0,0,0,0
1,1,465,1,1,0,0,A,1,0.2,0.4,0.2,0,0.0666666666666667,0,0,0,0,0,0
3,1,435,0,0,0,1,C,3,0.2,0.4,0.2,0,0.4,0,1,0,0,0,0
1,1,696,1,1,0,0,A,1,0.2,0.3,0.2,0,-0.366666666666667,0,0,0,0,0,0
3,1,369,1,0,0,1,C,3,0.3,0.2,0.2,0,-0.366666666666667,0,0,0,0,0,0
3,1,305,1,0,0,1,C,3,0.3,0.2,0.2,0,-0.0333333333333333,0,0,0,0,0,0
3,1,202,1,0,0,1,C,3,0.2,0.2,0.3,1,-0.0333333333333333,0,0,0,0,0,0
1,1,659,0,1,0,0,A,1,0.2,0.1,0.4,0,0.4,0,1,1,0,0,0
3,1,384,1,0,0,1,C,3,0.2,0.1,0.4,1,0.0666666666666667,0,0,0,0,0,0
2,1,441,1,0,1,0,B,2,0.2,0.1,0.4,0,0.0666666666666667,0,0,0,0,0,0
2,1,429,1,0,1,0,B,2,0.2,0.2,0.4,0,-0.6,0,0,0,0,0,0
3,1,472,1,0,0,1,C,3,0.2,0.2,0.4,1,0.0666666666666667,0,0,0,0,0,0
3,1,379,1,0,0,1,C,3,0.1,0.2,0.5,1,-0.166666666666667,0,0,0,0,0,0
2,1,506,1,0,1,0,B,2,0.1,0.2,0.6,0,0.266666666666667,0,0,0,0,0,0
3,1,432,1,0,0,1,C,3,0,0.3,0.6,1,-0.0666666666666667,0,0,0,0,0,0
2,1,432,0,0,1,0,B,2,0,0.3,0.6,0,0.266666666666667,0,1,1,0,0,0
3,1,476,1,0,0,1,C,3,0,0.3,0.5,1,0.166666666666667,0,0,0,0,0,0
3,1,625,0,0,0,1,C,3,0,0.3,0.5,1,0.166666666666667,0,0,0,0,1,0
2,1,382,1,0,1,0,B,2,0,0.3,0.5,0,-0.5,0,0,0,0,0,0
2,1,416,1,0,1,0,B,2,0,0.4,0.4,1,-0.266666666666667,0,0,0,0,0,0
2,1,353,1,0,1,0,B,2,0,0.4,0.4,1,0.0666666666666667,0,0,0,0,0,0
2,1,444,1,0,1,0,B,2,0,0.4,0.4,1,-0.266666666666667,0,0,0,0,0,0
3,1,585,1,0,0,1,C,3,0,0.5,0.3,0,0.166666666666667,0,0,0,0,0,0
2,1,643,1,0,1,0,B,2,0,0.5,0.3,1,-0.166666666666667,0,0,0,0,0,0
3,1,827,0,0,0,1,C,3,0,0.5,0.3,0,0.5,0,1,1,0,0,0
2,1,497,1,0,1,0,B,2,0,0.5,0.2,1,-0.5,0,0,0,0,0,0
2,1,457,1,0,1,0,B,2,0,0.6,0.2,1,0.266666666666667,0,0,0,0,0,0
3,1,599,0,0,0,1,C,3,0,0.7,0.1,0,0.7,0,1,1,0,0,0
3,1,376,1,0,0,1,C,3,0,0.7,0.1,0,0.366666666666667,0,0,0,0,0,0
2,1,574,1,0,1,0,B,2,0,0.6,0.2,1,-0.0666666666666667,0,0,0,0,0,0
3,1,611,1,0,0,1,C,3,0,0.6,0.2,0,-0.0666666666666667,0,0,0,0,0,0
2,1,554,0,0,1,0,B,2,0,0.5,0.3,1,0.166666666666667,0,1,0,1,0,0
2,1,455,1,0,1,0,B,2,0,0.4,0.3,1,0.0666666666666667,0,0,0,0,0,0
2,1,500,1,0,1,0,B,2,0,0.5,0.2,1,0.166666666666667,0,0,0,0,0,0
3,1,1530,0,0,0,1,C,3,0,0.5,0.2,0,-0.166666666666667,0,1,1,0,0,0
2,1,394,1,0,1,0,B,2,0,0.5,0.2,1,0.166666666666667,0,0,0,0,0,0
1,1,722,1,1,0,0,A,1,0,0.5,0.2,0,0.166666666666667,0,0,0,0,0,0
2,1,448,0,0,1,0,B,2,0.1,0.4,0.2,1,0.4,0,1,0,1,0,0
3,1,409,1,0,0,1,C,3,0.1,0.4,0.2,0,0.0666666666666667,0,0,0,0,0,0
3,1,342,1,0,0,1,C,3,0.1,0.4,0.2,0,0.0666666666666667,0,0,0,0,0,0
2,1,528,1,0,1,0,B,2,0.1,0.3,0.3,1,-0.366666666666667,0,0,0,0,0,0
2,1,433,1,0,1,0,B,2,0.1,0.4,0.2,1,-0.6,0,0,0,0,0,0
1,1,468,1,1,0,0,A,1,0.1,0.5,0.2,0,0.166666666666667,0,0,0,0,0,0
2,1,417,1,0,1,0,B,2,0.2,0.4,0.2,1,-0.266666666666667,0,0,0,0,0,0
3,1,514,1,0,0,1,C,3,0.2,0.4,0.2,0,-0.266666666666667,0,0,0,0,0,0
2,1,456,1,0,1,0,B,2,0.2,0.4,0.3,1,0.0666666666666667,0,0,0,0,0,0
1,1,442,1,1,0,0,A,1,0.2,0.4,0.3,0,0.0666666666666667,0,0,0,0,0,0
3,1,604,1,0,0,1,C,3,0.2,0.4,0.3,0,-0.266666666666667,0,0,0,0,0,0
2,1,615,1,0,1,0,B,2,0.2,0.4,0.4,1,-0.266666666666667,0,0,0,0,0,0
3,1,291,1,0,0,1,C,3,0.2,0.5,0.3,0,-0.166666666666667,0,0,0,0,0,0
2,1,270,1,0,1,0,B,2,0.2,0.5,0.3,1,-0.166666666666667,0,0,0,0,0,0
3,1,480,1,0,0,1,C,3,0.2,0.5,0.3,0,0.166666666666667,0,0,0,0,0,0
1,1,929,0,1,0,0,A,1,0.2,0.4,0.4,0,-0.266666666666667,0,1,0,0,0,0
2,1,336,1,0,1,0,B,2,0.1,0.4,0.4,1,-0.266666666666667,0,0,0,0,0,0
1,1,419,1,1,0,0,A,1,0.1,0.4,0.4,0,-0.266666666666667,0,0,0,0,0,0
2,1,455,0,0,1,0,B,2,0.2,0.4,0.3,1,0.4,0,1,0,1,0,0
1,1,394,1,1,0,0,A,1,0.2,0.3,0.3,0,-0.366666666666667,0,0,0,0,0,0
2,1,1138,1,0,1,0,B,2,0.2,0.3,0.3,1,-0.366666666666667,0,0,0,0,0,0
1,1,964,0,1,0,0,A,1,0.2,0.4,0.2,0,0.4,0,1,1,0,0,0
3,1,411,1,0,0,1,C,3,0.2,0.3,0.2,0,-0.366666666666667,0,0,0,0,0,0
1,1,673,1,1,0,0,A,1,0.2,0.3,0.2,0,-0.0333333333333333,0,0,0,0,0,0
3,1,869,0,0,0,1,C,3,0.3,0.2,0.2,0,0.3,0,1,0,0,0,0
2,1,579,1,0,1,0,B,2,0.3,0.2,0.1,0,-0.0333333333333333,0,0,0,0,0,0
2,1,493,1,0,1,0,B,2,0.3,0.3,0.1,1,-0.7,0,0,0,0,0,0
1,1,584,1,1,0,0,A,1,0.3,0.3,0.1,1,-0.0333333333333333,0,0,0,0,0,0
3,1,487,1,0,0,1,C,3,0.3,0.3,0.1,0,-0.366666666666667,0,0,0,0,0,0
3,1,588,1,0,0,1,C,3,0.3,0.3,0.2,0,-0.366666666666667,0,0,0,0,0,0
2,1,499,1,0,1,0,B,2,0.2,0.3,0.3,1,-0.0333333333333333,0,0,0,0,0,0
3,1,428,0,0,0,1,C,3,0.2,0.3,0.3,1,-0.0333333333333333,0,1,1,0,0,0
3,1,461,1,0,0,1,C,3,0.2,0.3,0.3,1,-0.366666666666667,0,0,0,0,0,0
2,1,511,1,0,1,0,B,2,0.2,0.3,0.3,1,-0.366666666666667,0,0,0,0,0,0
3,1,332,1,0,0,1,C,3,0.1,0.4,0.3,0,0.0666666666666667,0,0,0,0,0,0
2,1,538,0,0,1,0,B,2,0.1,0.4,0.4,1,0.0666666666666667,0,1,0,1,0,0
3,1,405,1,0,0,1,C,3,0.1,0.3,0.4,1,0.0666666666666667,0,0,0,0,0,0
1,1,741,1,1,0,0,A,1,0.1,0.2,0.5,0,-0.5,0,0,0,0,0,0
3,1,487,0,0,0,1,C,3,0.1,0.2,0.5,1,0.5,0,1,0,1,0,0
3,1,285,1,0,0,1,C,3,0.1,0.2,0.4,1,0.0666666666666667,0,0,0,0,0,0
3,1,625,1,0,0,1,C,3,0.1,0.2,0.4,1,-0.266666666666667,0,0,0,0,0,0
1,1,565,1,1,0,0,A,1,0.1,0.1,0.5,0,0.166666666666667,0,0,0,0,0,0
2,1,477,1,0,1,0,B,2,0.2,0.1,0.5,0,0.166666666666667,0,0,0,0,0,0
2,1,281,1,0,1,0,B,2,0.2,0.2,0.4,0,-0.6,0,0,0,0,0,0
1,1,604,0,1,0,0,A,1,0.2,0.2,0.4,0,0.4,0,1,0,0,0,0
3,1,957,1,0,0,1,C,3,0.2,0.2,0.3,1,-0.0333333333333333,0,0,0,0,0,0
