choice_numeric_unfiltered,trial_filter,stim_RT,stim_ACC,achoice,bchoice,cchoice,stim_choice,stim_choice_numeric,prob_1,prob_2,prob_3,best_choice,above_chance_diff,prob_switch_err,spont_switch_err,erratic_spont,explore_switch,error_NOS,perseverative
1,1,2333,1,1,0,0,A,1,NaN,NaN,NaN,0,NaN,0,0,0,0,0,0
1,1,783,0,1,0,0,A,1,1,0,0,1,1,0,0,0,0,1,0
1,1,566,1,1,0,0,A,1,0.5,0,0,1,0.166666666666667,0,0,0,0,0,0
1,1,564,1,1,0,0,A,1,0.666666666666667,0,0,1,0.333333333333333,0,0,0,0,0,0
1,1,467,1,1,0,0,A,1,0.75,0,0,1,0.0833333333333334,0,0,0,0,0,0
2,1,840,1,0,1,0,B,2,0.8,0,0,0,0.133333333333333,0,0,0,0,0,0
3,1,542,0,0,0,1,C,3,0.666666666666667,0.166666666666667,0,0,0.666666666666667,0,1,0,0,0,0
2,1,878,1,0,1,0,B,2,0.571428571428571,0.142857142857143,0,0,0.238095238095238,0,0,0,0,0,0
2,1,872,1,0,1,0,B,2,0.5,0.25,0,0,0.166666666666667,0,0,0,0,0,0
1,1,530,1,1,0,0,A,1,0.444444444444444,0.333333333333333,0,1,0.111111111111111,0,0,0,0,0,0
1,1,517,1,1,0,0,A,1,0.5,0.3,0,1,0.166666666666667,0,0,0,0,0,0
1,1,465,1,1,0,0,A,1,0.5,0.3,0,1,0.166666666666667,0,0,0,0,0,0
3,1,970,0,0,0,1,C,3,0.6,0.3,0,0,0.266666666666667,0,1,1,0,0,0
2,1,794,0,0,1,0,B,2,0.5,0.3,0,0,0.5,0,0,0,0,0,0
2,1,824,1,0,1,0,B,2,0.4,0.3,0,0,-0.266666666666667,0,0,0,0,0,0
2,1,859,1,0,1,0,B,2,0.3,0.4,0,1,0.0666666666666667,0,0,0,0,0,0
3,1,685,1,0,0,1,C,3,0.3,0.4,0,0,0.0666666666666667,0,0,0,0,0,0
1,1,1107,1,1,0,0,A,1,0.3,0.4,0.1,0,0.0666666666666667,0,0,0,0,0,0
2,1,554,1,0,1,0,B,2,0.4,0.3,0.1,0,-0.266666666666667,0,0,0,0,0,0
1,1,736,1,1,0,0,A,1,0.4,0.3,0.1,1,0.0666666666666667,0,0,0,0,0,0
3,1,717,1,0,0,1,C,3,0.4,0.3,0.1,0,0.0666666666666667,0,0,0,0,0,0
2,1,781,0,0,1,0,B,2,0.3,0.3,0.2,1,0.3,0,1,0,0,0,0
3,1,702,1,0,0,1,C,3,0.2,0.3,0.2,0,-0.0333333333333333,0,0,0,0,0,0
3,1,644,0,0,0,1,C,3,0.2,0.3,0.3,1,0.3,0,0,0,0,1,0
1,1,602,1,1,0,0,A,1,0.2,0.3,0.3,0,-0.366666666666667,0,0,0,0,0,0
1,1,732,1,1,0,0,A,1,0.3,0.2,0.3,1,-0.0333333333333333,0,0,0,0,0,0
1,1,475,1,1,0,0,A,1,0.4,0.1,0.3,1,0.0666666666666667,0,0,0,0,0,0
2,1,574,1,0,1,0,B,2,0.5,0.1,0.2,0,0.166666666666667,0,0,0,0,0,0
1,1,468,1,1,0,0,A,1,0.4,0.2,0.2,1,0.0666666666666667,0,0,0,0,0,0
3,1,558,1,0,0,1,C,3,0.5,0.1,0.2,0,0.166666666666667,0,0,0,0,0,0
3,1,540,1,0,0,1,C,3,0.4,0.1,0.3,0,0.0666666666666667,0,0,0,0,0,0
1,1,570,0,1,0,0,A,1,0.4,0.1,0.3,1,0.4,0,1,0,1,0,0
2,1,764,0,0,1,0,B,2,0.4,0.1,0.3,0,0.0666666666666667,1,0,0,0,0,0
3,1,854,0,0,0,1,C,3,0.4,0.1,0.2,0,0.0666666666666667,0,0,0,0,0,0
3,1,750,0,0,0,1,C,3,0.4,0.1,0.2,0,0.4,0,0,0,0,1,0
1,1,715,0,1,0,0,A,1,0.3,0.1,0.2,1,0.3,0,0,0,0,0,0
2,1,2428,0,0,1,0,B,2,0.2,0.1,0.2,0,0.2,1,0,0,0,0,0
1,1,861,0,1,0,0,A,1,0.1,0.1,0.2,0,0.2,0,0,0,0,0,0
2,1,700,1,0,1,0,B,2,0.1,0,0.2,0,-0.133333333333333,0,0,0,0,0,0
1,1,720,0,1,0,0,A,1,0,0.1,0.2,0,0.2,0,1,0,0,0,0
1,1,781,0,1,0,0,A,1,0,0.1,0.1,0,0.1,0,0,0,0,1,0
2,1,893,0,0,1,0,B,2,0,0.1,0,1,-0.233333333333333,0,0,0,0,0,0
1,1,1368,0,1,0,0,A,1,0,0.1,0,0,0.1,1,0,0,0,0,0
2,1,625,0,0,1,0,B,2,0,0.1,0,1,0.1,0,0,0,0,0,0
1,1,491,0,1,0,0,A,1,0,0.1,0,0,-0.566666666666667,1,0,0,0,0,0
1,1,481,0,1,0,0,A,1,0,0.1,0,0,-0.233333333333333,0,0,0,0,1,0
3,1,439,0,0,0,1,C,3,0,0.1,0,0,0.1,0,0,0,0,0,0
2,1,1175,1,0,1,0,B,2,0,0.1,0,1,-0.233333333333333,0,0,0,0,0,0
1,1,630,0,1,0,0,A,1,0,0.2,0,0,-0.133333333333333,0,1,1,0,0,0
2,1,869,0,0,1,0,B,2,0,0.1,0,1,0.1,0,0,0,0,0,0
1,1,1046,0,1,0,0,A,1,0,0.1,0,0,-0.233333333333333,1,0,0,0,0,0
1,1,1036,0,1,0,0,A,1,0,0.1,0,0,0.1,0,0,0,0,1,0
1,1,1007,0,1,0,0,A,1,0,0.1,0,0,0.1,0,0,0,0,1,0
3,1,1229,0,0,0,1,C,3,0,0.1,0,0,0.1,0,0,0,0,0,0
3,1,714,0,0,0,1,C,3,0,0.1,0,0,0.1,0,0,0,0,1,0
1,1,629,0,1,0,0,A,1,0,0.1,0,0,-0.233333333333333,0,0,0,0,0,0
2,1,923,0,0,1,0,B,2,0,0.1,0,1,0.1,0,0,0,0,0,0
1,1,1240,0,1,0,0,A,1,0,0.1,0,0,0.1,1,0,0,0,0,0
2,1,1115,0,0,1,0,B,2,0,0,0,1,0,0,0,0,0,0,0
1,1,1513,0,1,0,0,A,1,0,0,0,1,0,1,0,0,0,0,0
2,1,538,0,0,1,0,B,2,0,0,0,1,-0.666666666666667,1,0,0,0,0,0
1,1,1437,0,1,0,0,A,1,0,0,0,1,-0.666666666666667,1,0,0,0,0,0
1,1,1905,0,1,0,0,A,1,0,0,0,1,-0.333333333333333,0,0,0,0,1,0
2,1,1280,0,0,1,0,B,2,0,0,0,1,-0.333333333333333,1,0,0,0,0,0
1,1,715,0,1,0,0,A,1,0,0,0,1,-0.333333333333333,1,0,0,0,0,0
2,1,655,1,0,1,0,B,2,0,0,0,1,-0.333333333333333,0,0,0,0,0,0
2,1,535,1,0,1,0,B,2,0,0.1,0,1,-0.233333333333333,0,0,0,0,0,0
2,1,581,1,0,1,0,B,2,0,0.2,0,1,-0.133333333333333,0,0,0,0,0,0
3,1,975,1,0,0,1,C,3,0,0.3,0,0,-0.0333333333333333,0,0,0,0,0,0
1,1,498,1,1,0,0,A,1,0,0.3,0.1,0,-0.0333333333333333,0,0,0,0,0,0
1,1,524,1,1,0,0,A,1,0.1,0.3,0.1,0,-0.0333333333333333,0,0,0,0,0,0
2,1,562,0,0,1,0,B,2,0.2,0.3,0.1,1,0.3,0,1,0,0,0,0
1,1,571,0,1,0,0,A,1,0.2,0.3,0.1,0,-0.0333333333333333,1,0,0,0,0,0
2,1,496,1,0,1,0,B,2,0.2,0.3,0.1,1,-0.0333333333333333,0,0,0,0,0,0
2,1,902,1,0,1,0,B,2,0.2,0.4,0.1,1,0.0666666666666667,0,0,0,0,0,0
2,1,849,1,0,1,0,B,2,0.2,0.5,0.1,1,0.166666666666667,0,0,0,0,0,0
1,1,667,1,1,0,0,A,1,0.2,0.5,0.1,0,0.166666666666667,0,0,0,0,0,0
2,1,446,1,0,1,0,B,2,0.3,0.4,0.1,1,0.0666666666666667,0,0,0,0,0,0
1,1,468,1,1,0,0,A,1,0.3,0.4,0.1,0,0.0666666666666667,0,0,0,0,0,0
3,1,652,1,0,0,1,C,3,0.4,0.4,0,0,0.0666666666666667,0,0,0,0,0,0
2,1,535,0,0,1,0,B,2,0.3,0.4,0.1,1,0.4,0,1,0,1,0,0
1,1,1056,1,1,0,0,A,1,0.2,0.4,0.1,0,0.0666666666666667,0,0,0,0,0,0
2,1,462,0,0,1,0,B,2,0.3,0.4,0.1,1,0.4,0,1,0,1,0,0
3,1,545,0,0,0,1,C,3,0.3,0.4,0.1,0,0.4,1,0,0,0,0,0
3,1,631,1,0,0,1,C,3,0.3,0.3,0.1,0,-0.366666666666667,0,0,0,0,0,0
1,1,583,1,1,0,0,A,1,0.3,0.2,0.2,1,-0.0333333333333333,0,0,0,0,0,0
3,1,1165,1,0,0,1,C,3,0.4,0.1,0.2,0,0.0666666666666667,0,0,0,0,0,0
3,1,755,1,0,0,1,C,3,0.3,0.1,0.3,1,-0.0333333333333333,0,0,0,0,0,0
2,1,830,1,0,1,0,B,2,0.3,0,0.4,0,0.0666666666666667,0,0,0,0,0,0
3,1,933,1,0,0,1,C,3,0.2,0.1,0.4,1,-0.266666666666667,0,0,0,0,0,0
1,1,497,0,1,0,0,A,1,0.2,0.1,0.4,0,0.4,0,1,1,0,0,0
1,1,566,0,1,0,0,A,1,0.2,0.1,0.4,0,0.4,0,0,0,0,1,0
3,1,662,0,0,0,1,C,3,0.1,0.1,0.4,1,0.0666666666666667,0,0,0,0,0,0
3,1,681,0,0,0,1,C,3,0.1,0.1,0.4,1,0.4,0,0,0,0,1,0
1,1,696,0,1,0,0,A,1,0.1,0.1,0.4,0,0.4,1,0,0,0,0,0
1,1,986,0,1,0,0,A,1,0.1,0.1,0.3,0,-0.0333333333333333,0,0,0,0,1,0
1,1,790,0,1,0,0,A,1,0,0.1,0.3,0,-0.0333333333333333,0,0,0,0,1,0
1,1,887,0,1,0,0,A,1,0,0.1,0.2,0,-0.133333333333333,0,0,0,0,1,0
2,1,532,0,0,1,0,B,2,0,0.1,0.1,1,-0.233333333333333,0,0,0,0,0,0
3,1,802,0,0,0,1,C,3,0,0,0.1,1,0.1,1,0,0,0,0,0
3,1,772,0,0,0,1,C,3,0,0,0,1,-0.333333333333333,0,0,0,0,1,0
3,1,483,0,0,0,1,C,3,0,0,0,1,-0.333333333333333,0,0,0,0,1,1
1,1,681,0,1,0,0,A,1,0,0,0,1,0,1,0,0,0,0,0
2,1,877,0,0,1,0,B,2,0,0,0,1,0,1,0,0,0,0,0
2,1,981,0,0,1,0,B,2,0,0,0,1,0,0,0,0,0,1,0
1,1,544,0,1,0,0,A,1,0,0,0,1,-0.333333333333333,1,0,0,0,0,0
1,1,520,0,1,0,0,A,1,0,0,0,1,0,0,0,0,0,1,0
1,1,515,0,1,0,0,A,1,0,0,0,1,-0.333333333333333,0,0,0,0,1,1
1,1,617,0,1,0,0,A,1,0,0,0,1,0,0,0,0,0,1,1
1,1,412,0,1,0,0,A,1,0,0,0,1,0,0,0,0,0,1,1
2,1,1023,0,0,1,0,B,2,0,0,0,1,0,1,0,0,0,0,0
1,1,946,0,1,0,0,A,1,0,0,0,1,0,1,0,0,0,0,0
3,1,732,0,0,0,1,C,3,0,0,0,1,-0.333333333333333,1,0,0,0,0,0
1,1,702,1,1,0,0,A,1,0,0,0,1,-0.333333333333333,0,0,0,0,0,0
3,1,784,0,0,0,1,C,3,0.1,0,0,0,0.1,0,1,1,0,0,0
2,1,1184,0,0,1,0,B,2,0.1,0,0,0,0.1,0,0,0,0,0,0
2,1,1063,0,0,1,0,B,2,0.1,0,0,0,0.1,0,0,0,0,1,0
3,1,735,0,0,0,1,C,3,0.1,0,0,0,0.1,0,0,0,0,0,0
1,1,1154,0,1,0,0,A,1,0.1,0,0,1,0.1,0,0,0,0,0,0
2,1,2191,1,0,1,0,B,2,0.1,0,0,0,-0.233333333333333,0,0,0,0,0,0
1,1,950,0,1,0,0,A,1,0.1,0.1,0,1,-0.233333333333333,0,1,0,0,0,0
1,1,714,1,1,0,0,A,1,0.1,0.1,0,1,-0.233333333333333,0,0,0,0,0,0
1,1,867,0,1,0,0,A,1,0.2,0.1,0,1,-0.133333333333333,0,0,0,0,1,1
3,1,964,1,0,0,1,C,3,0.2,0.1,0,0,-0.133333333333333,0,0,0,0,0,0
2,1,951,0,0,1,0,B,2,0.1,0.1,0.1,1,-0.233333333333333,0,1,0,0,0,0
2,1,748,1,0,1,0,B,2,0.1,0.1,0.1,1,-0.566666666666667,0,0,0,0,0,0
3,1,995,0,0,0,1,C,3,0.1,0.2,0.1,0,-0.133333333333333,0,1,1,0,0,0
2,1,542,0,0,1,0,B,2,0.1,0.2,0.1,1,-0.133333333333333,0,0,0,0,0,0
3,1,560,1,0,0,1,C,3,0.1,0.2,0.1,0,-0.466666666666667,0,0,0,0,0,0
2,1,636,1,0,1,0,B,2,0.1,0.2,0.2,1,-0.466666666666667,0,0,0,0,0,0
2,1,785,0,0,1,0,B,2,0.1,0.2,0.2,1,0.2,0,0,0,0,1,0
3,1,1112,1,0,0,1,C,3,0.1,0.2,0.2,1,-0.466666666666667,0,0,0,0,0,0
2,1,1074,0,0,1,0,B,2,0,0.2,0.3,0,0.3,0,1,1,0,0,0
1,1,921,0,1,0,0,A,1,0,0.2,0.3,0,-0.0333333333333333,0,0,0,0,0,0
2,1,991,0,0,1,0,B,2,0,0.2,0.2,1,-0.133333333333333,0,0,0,0,0,0
1,1,1104,0,1,0,0,A,1,0,0.2,0.2,0,-0.133333333333333,1,0,0,0,0,0
1,1,913,0,1,0,0,A,1,0,0.1,0.2,0,-0.133333333333333,0,0,0,0,1,0
1,1,990,0,1,0,0,A,1,0,0.1,0.2,0,-0.133333333333333,0,0,0,0,1,0
2,1,1272,0,0,1,0,B,2,0,0.1,0.2,0,-0.133333333333333,0,0,0,0,0,0
1,1,581,0,1,0,0,A,1,0,0.1,0.1,0,-0.233333333333333,0,0,0,0,0,0
1,1,581,0,1,0,0,A,1,0,0,0.1,0,-0.233333333333333,0,0,0,0,1,0
2,1,561,0,0,1,0,B,2,0,0,0.1,0,-0.233333333333333,0,0,0,0,0,0
3,1,674,0,0,0,1,C,3,0,0,0,1,0,0,0,0,0,0,0
3,1,841,1,0,0,1,C,3,0,0,0,1,-0.333333333333333,0,0,0,0,0,0
2,1,640,1,0,1,0,B,2,0,0,0.1,0,-0.233333333333333,0,0,0,0,0,0
1,1,589,1,1,0,0,A,1,0,0.1,0.1,0,-0.233333333333333,0,0,0,0,0,0
2,1,1000,1,0,1,0,B,2,0.1,0.1,0.1,1,-0.233333333333333,0,0,0,0,0,0
3,1,938,1,0,0,1,C,3,0.1,0.2,0.1,0,-0.133333333333333,0,0,0,0,0,0
1,1,446,1,1,0,0,A,1,0.1,0.2,0.2,0,-0.133333333333333,0,0,0,0,0,0
1,1,609,1,1,0,0,A,1,0.2,0.2,0.2,1,-0.133333333333333,0,0,0,0,0,0
3,1,985,0,0,0,1,C,3,0.3,0.2,0.2,0,-0.366666666666667,0,1,1,0,0,0
1,1,626,0,1,0,0,A,1,0.3,0.2,0.2,1,-0.366666666666667,0,0,0,0,0,0
2,1,809,0,0,1,0,B,2,0.3,0.2,0.2,0,0.3,1,0,0,0,0,0
2,1,680,0,0,1,0,B,2,0.3,0.2,0.2,0,-0.366666666666667,0,0,0,0,1,0
3,1,730,0,0,0,1,C,3,0.3,0.2,0.1,0,-0.366666666666667,0,0,0,0,0,0
2,1,559,0,0,1,0,B,2,0.3,0.1,0.1,0,0.3,0,0,0,0,0,0
1,1,826,0,1,0,0,A,1,0.2,0.1,0.1,1,0.2,0,0,0,0,0,0
3,1,604,1,0,0,1,C,3,0.2,0,0.1,0,-0.466666666666667,0,0,0,0,0,0
1,1,1098,0,1,0,0,A,1,0.2,0,0.1,1,0.2,0,1,0,0,0,0
3,1,480,1,0,0,1,C,3,0.1,0,0.1,1,-0.566666666666667,0,0,0,0,0,0
3,1,1682,1,0,0,1,C,3,0,0,0.2,1,-0.466666666666667,0,0,0,0,0,0
1,1,728,0,1,0,0,A,1,0,0,0.3,0,0.3,0,1,1,0,0,0
3,1,908,1,0,0,1,C,3,0,0,0.3,1,-0.366666666666667,0,0,0,0,0,0
2,1,568,0,0,1,0,B,2,0,0,0.4,0,0.0666666666666667,0,1,1,0,0,0
2,1,643,0,0,1,0,B,2,0,0,0.4,0,0.4,0,0,0,0,1,0
2,1,561,1,0,1,0,B,2,0,0,0.4,0,-0.266666666666667,0,0,0,0,0,0
1,1,909,1,1,0,0,A,1,0,0.1,0.4,0,-0.6,0,0,0,0,0,0
2,1,1044,0,0,1,0,B,2,0.1,0.1,0.4,0,0.4,0,1,0,0,0,0
3,1,495,1,0,0,1,C,3,0.1,0.1,0.3,1,-0.7,0,0,0,0,0,0
2,1,1035,0,0,1,0,B,2,0.1,0.1,0.4,0,0.4,0,1,1,0,0,0
3,1,668,1,0,0,1,C,3,0.1,0.1,0.3,1,-0.366666666666667,0,0,0,0,0,0
3,1,1050,0,0,0,1,C,3,0.1,0.1,0.3,1,0.3,0,0,0,0,1,0
3,1,516,0,0,0,1,C,3,0.1,0.1,0.3,1,0.3,0,0,0,0,1,1
3,1,645,1,0,0,1,C,3,0.1,0.1,0.2,1,-0.466666666666667,0,0,0,0,0,0
1,1,1145,1,1,0,0,A,1,0.1,0.1,0.3,0,-0.366666666666667,0,0,0,0,0,0
3,1,1039,1,0,0,1,C,3,0.2,0.1,0.3,1,-0.366666666666667,0,0,0,0,0,0
1,1,1444,1,1,0,0,A,1,0.2,0,0.4,0,-0.266666666666667,0,0,0,0,0,0
3,1,853,1,0,0,1,C,3,0.2,0,0.4,1,-0.266666666666667,0,0,0,0,0,0
1,1,613,1,1,0,0,A,1,0.2,0,0.5,0,-0.5,0,0,0,0,0,0
2,1,710,0,0,1,0,B,2,0.3,0,0.4,0,0.4,0,1,0,0,0,0
1,1,498,1,1,0,0,A,1,0.3,0,0.4,0,-0.266666666666667,0,0,0,0,0,0
1,1,758,0,1,0,0,A,1,0.4,0,0.3,1,0.4,0,0,0,0,1,0
2,1,404,0,0,1,0,B,2,0.4,0,0.3,0,0.0666666666666667,1,0,0,0,0,0
1,1,1071,1,1,0,0,A,1,0.4,0,0.3,1,0.0666666666666667,0,0,0,0,0,0
1,1,1108,0,1,0,0,A,1,0.5,0,0.2,1,0.166666666666667,0,0,0,0,1,0
2,1,1079,0,0,1,0,B,2,0.4,0,0.2,0,0.0666666666666667,1,0,0,0,0,0
3,1,467,0,0,0,1,C,3,0.4,0,0.1,0,0.0666666666666667,0,0,0,0,0,0
2,1,522,0,0,1,0,B,2,0.3,0,0.1,0,-0.0333333333333333,0,0,0,0,0,0
1,1,715,1,1,0,0,A,1,0.3,0,0,1,-0.366666666666667,0,0,0,0,0,0
1,1,720,0,1,0,0,A,1,0.3,0,0,1,-0.0333333333333333,0,0,0,0,1,0
3,1,487,1,0,0,1,C,3,0.3,0,0,0,-0.7,0,0,0,0,0,0
1,1,757,0,1,0,0,A,1,0.2,0,0.1,1,0.2,0,1,0,0,0,0
2,1,744,1,0,1,0,B,2,0.2,0,0.1,0,-0.133333333333333,0,0,0,0,0,0
1,1,754,1,1,0,0,A,1,0.2,0.1,0.1,1,-0.466666666666667,0,0,0,0,0,0
3,1,488,0,0,0,1,C,3,0.2,0.1,0.1,0,-0.466666666666667,0,1,1,0,0,0
1,1,541,0,1,0,0,A,1,0.2,0.1,0.1,1,-0.466666666666667,0,0,0,0,0,0
3,1,458,1,0,0,1,C,3,0.2,0.1,0.1,0,-0.466666666666667,0,0,0,0,0,0
1,1,672,0,1,0,0,A,1,0.2,0.1,0.2,1,-0.133333333333333,0,1,0,0,0,0
3,1,964,1,0,0,1,C,3,0.2,0.1,0.2,1,-0.466666666666667,0,0,0,0,0,0
2,1,873,0,0,1,0,B,2,0.1,0.1,0.3,0,-0.0333333333333333,0,1,1,0,0,0
1,1,1176,0,1,0,0,A,1,0.1,0.1,0.3,0,0.3,0,0,0,0,0,0
2,1,601,1,0,1,0,B,2,0.1,0.1,0.2,0,-0.466666666666667,0,0,0,0,0,0
1,1,812,1,1,0,0,A,1,0.1,0.2,0.2,0,-0.466666666666667,0,0,0,0,0,0
2,1,651,0,0,1,0,B,2,0.2,0.1,0.2,0,-0.133333333333333,0,1,0,0,0,0
2,1,872,0,0,1,0,B,2,0.1,0.1,0.2,0,-0.133333333333333,0,0,0,0,1,0
2,1,504,1,0,1,0,B,2,0.1,0.1,0.2,0,-0.8,0,0,0,0,0,0
1,1,1360,0,1,0,0,A,1,0.1,0.2,0.2,0,-0.466666666666667,0,1,0,0,0,0
3,1,925,0,0,0,1,C,3,0.1,0.2,0.1,0,-0.133333333333333,0,0,0,0,0,0
3,1,517,1,0,0,1,C,3,0.1,0.2,0.1,0,-0.466666666666667,0,0,0,0,0,0
1,1,898,0,1,0,0,A,1,0.1,0.2,0.1,0,-0.133333333333333,0,1,0,0,0,0
1,1,1016,0,1,0,0,A,1,0.1,0.2,0.1,0,-0.133333333333333,0,0,0,0,1,0
2,1,1139,1,0,1,0,B,2,0.1,0.2,0.1,1,-0.8,0,0,0,0,0,0
2,1,811,1,0,1,0,B,2,0.1,0.2,0.1,1,-0.8,0,0,0,0,0,0
1,1,1063,1,1,0,0,A,1,0,0.3,0.1,0,-0.366666666666667,0,0,0,0,0,0
2,1,1034,0,0,1,0,B,2,0.1,0.3,0.1,1,0.3,0,1,0,0,0,0
2,1,1236,0,0,1,0,B,2,0.1,0.3,0.1,1,-0.0333333333333333,0,0,0,0,1,0
1,1,974,0,1,0,0,A,1,0.1,0.2,0.1,0,-0.133333333333333,1,0,0,0,0,0
3,1,943,0,0,0,1,C,3,0.1,0.2,0.1,0,-0.133333333333333,0,0,0,0,0,0
2,1,1302,0,0,1,0,B,2,0.1,0.2,0.1,1,-0.133333333333333,0,0,0,0,0,0
1,1,748,0,1,0,0,A,1,0.1,0.2,0,0,0.2,1,0,0,0,0,0
3,1,535,0,0,0,1,C,3,0.1,0.2,0,0,-0.466666666666667,0,0,0,0,0,0
1,1,377,0,1,0,0,A,1,0.1,0.2,0,0,-0.466666666666667,0,0,0,0,0,0
1,1,572,0,1,0,0,A,1,0.1,0.1,0,1,-0.233333333333333,0,0,0,0,1,0
1,1,503,0,1,0,0,A,1,0.1,0,0,1,-0.233333333333333,0,0,0,0,1,0
2,1,900,0,0,1,0,B,2,0,0,0,1,0,1,0,0,0,0,0
1,1,494,1,1,0,0,A,1,0,0,0,1,-0.333333333333333,0,0,0,0,0,0
2,1,600,1,0,1,0,B,2,0.1,0,0,0,-0.233333333333333,0,0,0,0,0,0
2,1,515,1,0,1,0,B,2,0.1,0.1,0,1,-0.9,0,0,0,0,0,0
3,1,583,1,0,0,1,C,3,0.1,0.2,0,0,-0.133333333333333,0,0,0,0,0,0
3,1,482,1,0,0,1,C,3,0.1,0.2,0.1,0,-0.466666666666667,0,0,0,0,0,0
2,1,463,1,0,1,0,B,2,0.1,0.2,0.2,1,-0.133333333333333,0,0,0,0,0,0
3,1,438,1,0,0,1,C,3,0.1,0.3,0.2,0,-0.366666666666667,0,0,0,0,0,0
2,1,483,0,0,1,0,B,2,0.1,0.3,0.3,1,-0.0333333333333333,0,1,0,0,0,0
3,1,718,1,0,0,1,C,3,0.1,0.3,0.3,1,-0.0333333333333333,0,0,0,0,0,0
3,1,402,0,0,0,1,C,3,0.1,0.3,0.4,1,0.0666666666666667,0,0,0,0,1,0
2,1,549,1,0,1,0,B,2,0.1,0.3,0.4,0,-0.6,0,0,0,0,0,0
2,1,970,1,0,1,0,B,2,0,0.4,0.4,1,-0.266666666666667,0,0,0,0,0,0
2,1,473,1,0,1,0,B,2,0,0.4,0.4,1,0.0666666666666667,0,0,0,0,0,0
2,1,457,1,0,1,0,B,2,0,0.4,0.4,1,-0.266666666666667,0,0,0,0,0,0
3,1,422,1,0,0,1,C,3,0,0.5,0.3,0,0.166666666666667,0,0,0,0,0,0
2,1,1259,1,0,1,0,B,2,0,0.5,0.3,1,-0.166666666666667,0,0,0,0,0,0
3,1,447,0,0,0,1,C,3,0,0.5,0.3,0,0.5,0,1,1,0,0,0
2,1,421,1,0,1,0,B,2,0,0.5,0.2,1,-0.5,0,0,0,0,0,0
2,1,527,1,0,1,0,B,2,0,0.6,0.2,1,0.266666666666667,0,0,0,0,0,0
3,1,469,0,0,0,1,C,3,0,0.7,0.1,0,0.7,0,1,1,0,0,0
3,1,503,1,0,0,1,C,3,0,0.7,0.1,0,0.366666666666667,0,0,0,0,0,0
2,1,605,1,0,1,0,B,2,0,0.6,0.2,1,-0.0666666666666667,0,0,0,0,0,0
3,1,480,1,0,0,1,C,3,0,0.6,0.2,0,-0.0666666666666667,0,0,0,0,0,0
2,1,449,0,0,1,0,B,2,0,0.5,0.3,1,0.166666666666667,0,1,0,1,0,0
2,1,394,1,0,1,0,B,2,0,0.4,0.3,1,0.0666666666666667,0,0,0,0,0,0
2,1,439,1,0,1,0,B,2,0,0.5,0.2,1,0.166666666666667,0,0,0,0,0,0
3,1,480,0,0,0,1,C,3,0,0.5,0.2,0,-0.166666666666667,0,1,1,0,0,0
2,1,464,1,0,1,0,B,2,0,0.5,0.2,1,0.166666666666667,0,0,0,0,0,0
1,1,469,1,1,0,0,A,1,0,0.5,0.2,0,0.166666666666667,0,0,0,0,0,0
2,1,348,0,0,1,0,B,2,0.1,0.4,0.2,1,0.4,0,1,0,1,0,0
3,1,405,1,0,0,1,C,3,0.1,0.4,0.2,0,0.0666666666666667,0,0,0,0,0,0
3,1,534,1,0,0,1,C,3,0.1,0.4,0.2,0,0.0666666666666667,0,0,0,0,0,0
2,1,551,1,0,1,0,B,2,0.1,0.3,0.3,1,-0.366666666666667,0,0,0,0,0,0
2,1,527,1,0,1,0,B,2,0.1,0.4,0.2,1,-0.6,0,0,0,0,0,0
1,1,527,1,1,0,0,A,1,0.1,0.5,0.2,0,0.166666666666667,0,0,0,0,0,0
2,1,643,1,0,1,0,B,2,0.2,0.4,0.2,1,-0.266666666666667,0,0,0,0,0,0
3,1,529,1,0,0,1,C,3,0.2,0.4,0.2,0,-0.266666666666667,0,0,0,0,0,0
2,1,460,1,0,1,0,B,2,0.2,0.4,0.3,1,0.0666666666666667,0,0,0,0,0,0
1,1,473,1,1,0,0,A,1,0.2,0.4,0.3,0,0.0666666666666667,0,0,0,0,0,0
3,1,505,1,0,0,1,C,3,0.2,0.4,0.3,0,-0.266666666666667,0,0,0,0,0,0
2,1,487,1,0,1,0,B,2,0.2,0.4,0.4,1,-0.266666666666667,0,0,0,0,0,0
3,1,481,1,0,0,1,C,3,0.2,0.5,0.3,0,-0.166666666666667,0,0,0,0,0,0
2,1,457,1,0,1,0,B,2,0.2,0.5,0.3,1,-0.166666666666667,0,0,0,0,0,0
1,1,562,1,1,0,0,A,1,0.2,0.5,0.3,0,0.166666666666667,0,0,0,0,0,0
1,1,468,1,1,0,0,A,1,0.3,0.4,0.3,0,-0.266666666666667,0,0,0,0,0,0
3,1,507,1,0,0,1,C,3,0.3,0.4,0.3,0,-0.266666666666667,0,0,0,0,0,0
1,1,492,1,1,0,0,A,1,0.3,0.3,0.4,0,-0.266666666666667,0,0,0,0,0,0
2,1,439,0,0,1,0,B,2,0.4,0.3,0.3,0,0.4,0,1,0,0,0,0
1,1,371,1,1,0,0,A,1,0.4,0.2,0.3,1,-0.266666666666667,0,0,0,0,0,0
2,1,441,1,0,1,0,B,2,0.4,0.2,0.3,0,-0.266666666666667,0,0,0,0,0,0
1,1,442,0,1,0,0,A,1,0.4,0.3,0.2,1,0.4,0,1,0,1,0,0
3,1,437,1,0,0,1,C,3,0.4,0.2,0.2,0,-0.266666666666667,0,0,0,0,0,0
1,1,488,1,1,0,0,A,1,0.4,0.2,0.2,1,0.0666666666666667,0,0,0,0,0,0
3,1,436,0,0,0,1,C,3,0.5,0.1,0.2,0,0.5,0,1,1,0,0,0
2,1,641,1,0,1,0,B,2,0.4,0.1,0.2,0,0.0666666666666667,0,0,0,0,0,0
2,1,411,1,0,1,0,B,2,0.3,0.2,0.2,0,-0.7,0,0,0,0,0,0
1,1,526,1,1,0,0,A,1,0.3,0.3,0.1,1,-0.0333333333333333,0,0,0,0,0,0
3,1,484,1,0,0,1,C,3,0.3,0.3,0.1,0,-0.366666666666667,0,0,0,0,0,0
3,1,402,1,0,0,1,C,3,0.3,0.3,0.2,0,-0.366666666666667,0,0,0,0,0,0
2,1,529,1,0,1,0,B,2,0.2,0.3,0.3,1,-0.0333333333333333,0,0,0,0,0,0
3,1,524,0,0,0,1,C,3,0.2,0.3,0.3,1,-0.0333333333333333,0,1,1,0,0,0
3,1,414,1,0,0,1,C,3,0.2,0.3,0.3,1,-0.366666666666667,0,0,0,0,0,0
2,1,628,1,0,1,0,B,2,0.2,0.3,0.3,1,-0.366666666666667,0,0,0,0,0,0
3,1,464,1,0,0,1,C,3,0.1,0.4,0.3,0,0.0666666666666667,0,0,0,0,0,0
2,1,515,0,0,1,0,B,2,0.1,0.4,0.4,1,0.0666666666666667,0,1,0,1,0,0
3,1,493,1,0,0,1,C,3,0.1,0.3,0.4,1,0.0666666666666667,0,0,0,0,0,0
1,1,523,1,1,0,0,A,1,0.1,0.2,0.5,0,-0.5,0,0,0,0,0,0
3,1,390,0,0,0,1,C,3,0.1,0.2,0.5,1,0.5,0,1,0,1,0,0
3,1,405,1,0,0,1,C,3,0.1,0.2,0.4,1,0.0666666666666667,0,0,0,0,0,0
3,1,431,1,0,0,1,C,3,0.1,0.2,0.4,1,-0.266666666666667,0,0,0,0,0,0
1,1,522,1,1,0,0,A,1,0.1,0.1,0.5,0,0.166666666666667,0,0,0,0,0,0
2,1,888,1,0,1,0,B,2,0.2,0.1,0.5,0,0.166666666666667,0,0,0,0,0,0
2,1,489,1,0,1,0,B,2,0.2,0.2,0.4,0,-0.6,0,0,0,0,0,0
3,1,508,0,0,0,1,C,3,0.2,0.2,0.4,1,0.4,0,1,0,1,0,0
3,1,506,1,0,0,1,C,3,0.2,0.2,0.3,1,-0.0333333333333333,0,0,0,0,0,0
