choice_numeric_unfiltered,trial_filter,stim_RT,stim_ACC,achoice,bchoice,cchoice,stim_choice,stim_choice_numeric,prob_1,prob_2,prob_3,best_choice,above_chance_diff,prob_switch_err,spont_switch_err,erratic_spont,explore_switch,error_NOS,perseverative
1,1,1855,1,1,0,0,A,1,NaN,NaN,NaN,0,NaN,0,0,0,0,0,0
1,1,1431,0,1,0,0,A,1,1,0,0,1,1,0,0,0,0,1,0
2,1,356,0,0,1,0,B,2,0.5,0,0,0,0.166666666666667,1,0,0,0,0,0
2,1,394,1,0,1,0,B,2,0.333333333333333,0,0,0,0,0,0,0,0,0,0
1,1,334,1,1,0,0,A,1,0.25,0.25,0,1,-0.416666666666667,0,0,0,0,0,0
2,1,852,1,0,1,0,B,2,0.4,0.2,0,0,-0.266666666666667,0,0,0,0,0,0
3,1,557,0,0,0,1,C,3,0.333333333333333,0.333333333333333,0,0,0.333333333333333,0,1,0,0,0,0
2,1,1277,1,0,1,0,B,2,0.285714285714286,0.285714285714286,0,1,-0.0476190476190476,0,0,0,0,0,0
2,1,745,1,0,1,0,B,2,0.25,0.375,0,1,0.0416666666666667,0,0,0,0,0,0
1,1,739,0,1,0,0,A,1,0.222222222222222,0.444444444444444,0,0,0.111111111111111,0,1,1,0,0,0
2,1,890,0,0,1,0,B,2,0.2,0.4,0,1,0.0666666666666667,0,0,0,0,0,0
2,1,372,1,0,1,0,B,2,0.1,0.4,0,1,0.0666666666666667,0,0,0,0,0,0
3,1,557,0,0,0,1,C,3,0.1,0.5,0,0,0.166666666666667,0,1,1,0,0,0
2,1,486,0,0,1,0,B,2,0.1,0.5,0,1,0.5,0,0,0,0,0,0
2,1,536,1,0,1,0,B,2,0.1,0.4,0,1,-0.266666666666667,0,0,0,0,0,0
1,1,623,0,1,0,0,A,1,0,0.5,0,0,0.166666666666667,0,1,1,0,0,0
2,1,614,1,0,1,0,B,2,0,0.4,0,1,0.0666666666666667,0,0,0,0,0,0
1,1,562,1,1,0,0,A,1,0,0.5,0,0,0.166666666666667,0,0,0,0,0,0
2,1,1329,1,0,1,0,B,2,0.1,0.4,0,1,-0.266666666666667,0,0,0,0,0,0
2,1,1067,1,0,1,0,B,2,0.1,0.4,0,1,0.0666666666666667,0,0,0,0,0,0
3,1,779,1,0,0,1,C,3,0.1,0.5,0,0,0.166666666666667,0,0,0,0,0,0
2,1,1296,0,0,1,0,B,2,0.1,0.5,0.1,1,0.5,0,1,0,1,0,0
1,1,607,1,1,0,0,A,1,0.1,0.4,0.1,0,0.0666666666666667,0,0,0,0,0,0
3,1,1129,0,0,0,1,C,3,0.2,0.4,0.1,0,0.4,0,1,0,0,0,0
1,1,513,1,1,0,0,A,1,0.2,0.4,0.1,0,-0.266666666666667,0,0,0,0,0,0
1,1,2198,1,1,0,0,A,1,0.3,0.3,0.1,1,-0.0333333333333333,0,0,0,0,0,0
1,1,1073,1,1,0,0,A,1,0.4,0.3,0.1,1,0.0666666666666667,0,0,0,0,0,0
2,1,715,1,0,1,0,B,2,0.5,0.2,0.1,0,0.166666666666667,0,0,0,0,0,0
1,1,590,0,1,0,0,A,1,0.4,0.3,0.1,1,0.0666666666666667,0,1,0,1,0,0
1,1,662,1,1,0,0,A,1,0.4,0.2,0.1,1,0.0666666666666667,0,0,0,0,0,0
3,1,600,1,0,0,1,C,3,0.5,0.1,0.1,0,0.166666666666667,0,0,0,0,0,0
1,1,708,0,1,0,0,A,1,0.5,0.1,0.1,1,0.5,0,1,0,1,0,0
2,1,810,0,0,1,0,B,2,0.5,0.1,0.1,0,0.166666666666667,1,0,0,0,0,0
3,1,624,0,0,0,1,C,3,0.4,0.1,0.1,0,0.0666666666666667,0,0,0,0,0,0
3,1,596,0,0,0,1,C,3,0.4,0.1,0.1,0,0.4,0,0,0,0,1,0
3,1,403,0,0,0,1,C,3,0.3,0.1,0.1,0,0.3,0,0,0,0,1,0
2,1,671,0,0,1,0,B,2,0.2,0.1,0.1,0,0.2,0,0,0,0,0,0
1,1,501,0,1,0,0,A,1,0.1,0.1,0.1,1,0.1,0,0,0,0,0,0
3,1,517,0,0,0,1,C,3,0.1,0,0.1,1,-0.233333333333333,1,0,0,0,0,0
3,1,630,0,0,0,1,C,3,0.1,0,0.1,1,0.1,0,0,0,0,1,0
1,1,450,0,1,0,0,A,1,0,0,0.1,0,0.1,1,0,0,0,0,0
2,1,490,0,0,1,0,B,2,0,0,0,1,-0.333333333333333,0,0,0,0,0,0
2,1,424,0,0,1,0,B,2,0,0,0,1,0,0,0,0,0,1,0
2,1,503,0,0,1,0,B,2,0,0,0,1,0,0,0,0,0,1,1
3,1,688,1,0,0,1,C,3,0,0,0,1,-0.666666666666667,0,0,0,0,0,0
3,1,709,0,0,0,1,C,3,0,0,0.1,1,-0.233333333333333,0,0,0,0,1,0
2,1,757,0,0,1,0,B,2,0,0,0.1,0,0.1,1,0,0,0,0,0
1,1,926,1,1,0,0,A,1,0,0,0.1,0,-0.233333333333333,0,0,0,0,0,0
1,1,601,0,1,0,0,A,1,0.1,0,0.1,1,-0.233333333333333,0,0,0,0,1,0
2,1,462,0,0,1,0,B,2,0.1,0,0.1,0,0.1,1,0,0,0,0,0
1,1,712,0,1,0,0,A,1,0.1,0,0.1,1,-0.233333333333333,0,0,0,0,0,0
1,1,524,0,1,0,0,A,1,0.1,0,0.1,1,0.1,0,0,0,0,1,0
2,1,811,0,0,1,0,B,2,0.1,0,0.1,0,0.1,1,0,0,0,0,0
2,1,720,0,0,1,0,B,2,0.1,0,0.1,0,0.1,0,0,0,0,1,0
3,1,724,0,0,0,1,C,3,0.1,0,0.1,1,0.1,0,0,0,0,0,0
3,1,680,1,0,0,1,C,3,0.1,0,0,0,-0.233333333333333,0,0,0,0,0,0
1,1,606,0,1,0,0,A,1,0.1,0,0.1,1,0.1,0,1,0,0,0,0
1,1,628,0,1,0,0,A,1,0.1,0,0.1,1,0.1,0,0,0,0,1,0
1,1,545,0,1,0,0,A,1,0,0,0.1,0,0.1,0,0,0,0,1,1
1,1,510,0,1,0,0,A,1,0,0,0.1,0,0.1,0,0,0,0,1,1
3,1,895,0,0,0,1,C,3,0,0,0.1,1,-0.566666666666667,0,0,0,0,0,0
1,1,636,1,1,0,0,A,1,0,0,0.1,0,-0.566666666666667,0,0,0,0,0,0
3,1,628,1,0,0,1,C,3,0.1,0,0.1,1,-0.233333333333333,0,0,0,0,0,0
3,1,1023,1,0,0,1,C,3,0.1,0,0.2,1,-0.133333333333333,0,0,0,0,0,0
2,1,719,0,0,1,0,B,2,0.1,0,0.3,0,-0.0333333333333333,0,1,1,0,0,0
2,1,637,1,0,1,0,B,2,0.1,0,0.3,0,-0.0333333333333333,0,0,0,0,0,0
2,1,715,1,0,1,0,B,2,0.1,0.1,0.2,0,-0.133333333333333,0,0,0,0,0,0
2,1,798,1,0,1,0,B,2,0.1,0.2,0.2,1,-0.133333333333333,0,0,0,0,0,0
3,1,688,1,0,0,1,C,3,0.1,0.3,0.2,0,-0.0333333333333333,0,0,0,0,0,0
1,1,690,1,1,0,0,A,1,0.1,0.3,0.3,0,-0.0333333333333333,0,0,0,0,0,0
1,1,1927,1,1,0,0,A,1,0.2,0.3,0.3,0,-0.0333333333333333,0,0,0,0,0,0
2,1,536,0,0,1,0,B,2,0.3,0.3,0.3,1,0.3,0,1,0,0,0,0
1,1,361,0,1,0,0,A,1,0.2,0.3,0.3,0,-0.0333333333333333,1,0,0,0,0,0
2,1,407,1,0,1,0,B,2,0.2,0.3,0.2,1,-0.0333333333333333,0,0,0,0,0,0
2,1,558,1,0,1,0,B,2,0.2,0.4,0.1,1,0.0666666666666667,0,0,0,0,0,0
2,1,573,1,0,1,0,B,2,0.2,0.5,0.1,1,0.166666666666667,0,0,0,0,0,0
1,1,529,1,1,0,0,A,1,0.2,0.5,0.1,0,0.166666666666667,0,0,0,0,0,0
2,1,933,1,0,1,0,B,2,0.3,0.4,0.1,1,0.0666666666666667,0,0,0,0,0,0
1,1,418,1,1,0,0,A,1,0.3,0.4,0.1,0,0.0666666666666667,0,0,0,0,0,0
3,1,593,1,0,0,1,C,3,0.4,0.4,0,0,0.0666666666666667,0,0,0,0,0,0
2,1,645,0,0,1,0,B,2,0.3,0.4,0.1,1,0.4,0,1,0,1,0,0
1,1,618,1,1,0,0,A,1,0.2,0.4,0.1,0,0.0666666666666667,0,0,0,0,0,0
2,1,575,0,0,1,0,B,2,0.3,0.4,0.1,1,0.4,0,1,0,1,0,0
3,1,576,0,0,0,1,C,3,0.3,0.4,0.1,0,0.4,1,0,0,0,0,0
3,1,577,1,0,0,1,C,3,0.3,0.3,0.1,0,-0.366666666666667,0,0,0,0,0,0
1,1,620,1,1,0,0,A,1,0.3,0.2,0.2,1,-0.0333333333333333,0,0,0,0,0,0
3,1,509,1,0,0,1,C,3,0.4,0.1,0.2,0,0.0666666666666667,0,0,0,0,0,0
3,1,585,1,0,0,1,C,3,0.3,0.1,0.3,1,-0.0333333333333333,0,0,0,0,0,0
2,1,519,1,0,1,0,B,2,0.3,0,0.4,0,0.0666666666666667,0,0,0,0,0,0
3,1,537,1,0,0,1,C,3,0.2,0.1,0.4,1,-0.266666666666667,0,0,0,0,0,0
1,1,773,0,1,0,0,A,1,0.2,0.1,0.4,0,0.4,0,1,1,0,0,0
1,1,238,0,1,0,0,A,1,0.2,0.1,0.4,0,0.4,0,0,0,0,1,0
3,1,252,0,0,0,1,C,3,0.1,0.1,0.4,1,0.0666666666666667,0,0,0,0,0,0
1,1,463,0,1,0,0,A,1,0.1,0.1,0.4,0,0.4,1,0,0,0,0,0
1,1,509,0,1,0,0,A,1,0.1,0.1,0.4,0,0.4,0,0,0,0,1,0
1,1,453,0,1,0,0,A,1,0.1,0.1,0.3,0,-0.0333333333333333,0,0,0,0,1,0
1,1,508,0,1,0,0,A,1,0,0.1,0.3,0,-0.0333333333333333,0,0,0,0,1,0
1,1,614,0,1,0,0,A,1,0,0.1,0.2,0,-0.133333333333333,0,0,0,0,1,0
2,1,564,0,0,1,0,B,2,0,0.1,0.1,1,-0.233333333333333,0,0,0,0,0,0
1,1,646,0,1,0,0,A,1,0,0,0.1,0,0.1,1,0,0,0,0,0
2,1,364,1,0,1,0,B,2,0,0,0,1,-0.333333333333333,0,0,0,0,0,0
1,1,565,0,1,0,0,A,1,0,0.1,0,0,-0.233333333333333,0,1,1,0,0,0
2,1,736,0,0,1,0,B,2,0,0.1,0,1,0.1,0,0,0,0,0,0
3,1,462,0,0,0,1,C,3,0,0.1,0,0,0.1,1,0,0,0,0,0
3,1,3277,0,0,0,1,C,3,0,0.1,0,0,0.1,0,0,0,0,1,0
1,1,640,1,1,0,0,A,1,0,0.1,0,0,-0.233333333333333,0,0,0,0,0,0
3,1,573,0,0,0,1,C,3,0.1,0.1,0,0,0.1,0,1,0,0,0,0
2,1,368,1,0,1,0,B,2,0.1,0.1,0,1,-0.233333333333333,0,0,0,0,0,0
2,1,406,0,0,1,0,B,2,0.1,0.2,0,1,0.2,0,0,0,0,1,0
3,1,618,0,0,0,1,C,3,0.1,0.2,0,0,0.2,1,0,0,0,0,0
1,1,884,0,1,0,0,A,1,0.1,0.2,0,0,0.2,0,0,0,0,0,0
3,1,521,0,0,0,1,C,3,0.1,0.1,0,0,0.1,0,0,0,0,0,0
1,1,544,1,1,0,0,A,1,0.1,0.1,0,1,-0.233333333333333,0,0,0,0,0,0
2,1,731,0,0,1,0,B,2,0.2,0.1,0,0,-0.133333333333333,0,1,1,0,0,0
1,1,605,0,1,0,0,A,1,0.2,0.1,0,1,0.2,0,0,0,0,0,0
3,1,842,0,0,0,1,C,3,0.2,0.1,0,0,0.2,1,0,0,0,0,0
1,1,658,0,1,0,0,A,1,0.1,0.1,0,1,0.1,0,0,0,0,0,0
1,1,597,0,1,0,0,A,1,0.1,0.1,0,1,0.1,0,0,0,0,1,0
1,1,667,0,1,0,0,A,1,0.1,0,0,1,0.1,0,0,0,0,1,1
2,1,570,0,0,1,0,B,2,0.1,0,0,0,-0.233333333333333,1,0,0,0,0,0
2,1,353,0,0,1,0,B,2,0.1,0,0,0,-0.233333333333333,0,0,0,0,1,0
3,1,748,0,0,0,1,C,3,0.1,0,0,0,-0.233333333333333,0,0,0,0,0,0
3,1,614,1,0,0,1,C,3,0.1,0,0,0,-0.233333333333333,0,0,0,0,0,0
2,1,571,0,0,1,0,B,2,0,0,0.1,0,-0.233333333333333,0,1,0,0,0,0
1,1,513,1,1,0,0,A,1,0,0,0.1,0,-0.233333333333333,0,0,0,0,0,0
3,1,457,1,0,0,1,C,3,0.1,0,0.1,1,-0.566666666666667,0,0,0,0,0,0
1,1,509,1,1,0,0,A,1,0.1,0,0.2,0,-0.133333333333333,0,0,0,0,0,0
3,1,724,1,0,0,1,C,3,0.2,0,0.2,1,-0.133333333333333,0,0,0,0,0,0
2,1,686,1,0,1,0,B,2,0.2,0,0.3,0,-0.366666666666667,0,0,0,0,0,0
1,1,559,1,1,0,0,A,1,0.2,0.1,0.3,0,-0.366666666666667,0,0,0,0,0,0
1,1,514,0,1,0,0,A,1,0.3,0.1,0.3,1,0.3,0,0,0,0,1,0
2,1,774,1,0,1,0,B,2,0.3,0.1,0.3,0,-0.366666666666667,0,0,0,0,0,0
3,1,644,0,0,0,1,C,3,0.3,0.2,0.3,1,0.3,0,1,0,0,0,0
3,1,844,1,0,0,1,C,3,0.3,0.2,0.2,0,-0.0333333333333333,0,0,0,0,0,0
1,1,525,1,1,0,0,A,1,0.3,0.2,0.3,1,-0.0333333333333333,0,0,0,0,0,0
3,1,745,1,0,0,1,C,3,0.3,0.2,0.3,1,-0.0333333333333333,0,0,0,0,0,0
3,1,604,1,0,0,1,C,3,0.3,0.2,0.3,1,-0.0333333333333333,0,0,0,0,0,0
3,1,506,1,0,0,1,C,3,0.2,0.2,0.4,1,0.0666666666666667,0,0,0,0,0,0
3,1,543,1,0,0,1,C,3,0.2,0.2,0.4,1,0.0666666666666667,0,0,0,0,0,0
2,1,556,1,0,1,0,B,2,0.2,0.1,0.5,0,0.166666666666667,0,0,0,0,0,0
3,1,512,1,0,0,1,C,3,0.1,0.2,0.5,1,0.166666666666667,0,0,0,0,0,0
1,1,529,1,1,0,0,A,1,0.1,0.2,0.6,0,0.266666666666667,0,0,0,0,0,0
2,1,532,0,0,1,0,B,2,0.2,0.1,0.6,0,0.6,0,1,0,0,0,0
1,1,547,1,1,0,0,A,1,0.2,0.1,0.6,0,0.266666666666667,0,0,0,0,0,0
2,1,664,1,0,1,0,B,2,0.3,0.1,0.5,0,0.166666666666667,0,0,0,0,0,0
1,1,651,1,1,0,0,A,1,0.2,0.2,0.5,0,0.166666666666667,0,0,0,0,0,0
2,1,643,1,0,1,0,B,2,0.3,0.2,0.4,0,0.0666666666666667,0,0,0,0,0,0
3,1,852,1,0,0,1,C,3,0.3,0.3,0.3,1,-0.0333333333333333,0,0,0,0,0,0
1,1,806,1,1,0,0,A,1,0.3,0.3,0.3,1,-0.0333333333333333,0,0,0,0,0,0
1,1,556,1,1,0,0,A,1,0.4,0.3,0.2,1,0.0666666666666667,0,0,0,0,0,0
3,1,666,0,0,0,1,C,3,0.5,0.2,0.2,0,-0.166666666666667,0,1,1,0,0,0
1,1,505,0,1,0,0,A,1,0.5,0.2,0.1,1,-0.166666666666667,0,0,0,0,0,0
2,1,533,0,0,1,0,B,2,0.4,0.2,0.1,0,0.4,1,0,0,0,0,0
2,1,788,0,0,1,0,B,2,0.4,0.2,0.1,0,-0.266666666666667,0,0,0,0,1,0
3,1,428,0,0,0,1,C,3,0.3,0.2,0.1,0,-0.366666666666667,0,0,0,0,0,0
2,1,562,0,0,1,0,B,2,0.3,0.1,0.1,0,0.3,0,0,0,0,0,0
1,1,364,0,1,0,0,A,1,0.2,0.1,0.1,1,0.2,0,0,0,0,0,0
3,1,531,1,0,0,1,C,3,0.2,0,0.1,0,-0.466666666666667,0,0,0,0,0,0
2,1,566,0,0,1,0,B,2,0.2,0,0.1,0,0.2,0,1,0,0,0,0
1,1,463,1,1,0,0,A,1,0.1,0,0.1,1,-0.566666666666667,0,0,0,0,0,0
2,1,548,1,0,1,0,B,2,0.1,0,0.1,0,-0.566666666666667,0,0,0,0,0,0
2,1,421,0,0,1,0,B,2,0.1,0.1,0.1,1,0.1,0,0,0,0,1,0
2,1,435,1,0,1,0,B,2,0.1,0.1,0.1,1,-0.566666666666667,0,0,0,0,0,0
1,1,698,0,1,0,0,A,1,0.1,0.2,0.1,0,-0.133333333333333,0,1,1,0,0,0
1,1,448,0,1,0,0,A,1,0.1,0.2,0.1,0,0.2,0,0,0,0,1,0
3,1,394,1,0,0,1,C,3,0.1,0.2,0.1,0,-0.466666666666667,0,0,0,0,0,0
3,1,417,1,0,0,1,C,3,0.1,0.2,0.2,1,-0.8,0,0,0,0,0,0
1,1,519,0,1,0,0,A,1,0.1,0.2,0.3,0,0.3,0,1,1,0,0,0
1,1,601,1,1,0,0,A,1,0.1,0.2,0.2,0,-0.8,0,0,0,0,0,0
1,1,479,0,1,0,0,A,1,0.2,0.2,0.2,1,0.2,0,0,0,0,1,0
2,1,514,1,0,1,0,B,2,0.1,0.2,0.2,1,-0.466666666666667,0,0,0,0,0,0
2,1,467,0,0,1,0,B,2,0.1,0.2,0.2,1,0.2,0,0,0,0,1,0
2,1,464,0,0,1,0,B,2,0.1,0.2,0.2,1,0.2,0,0,0,0,1,1
2,1,624,1,0,1,0,B,2,0.1,0.1,0.2,0,-0.466666666666667,0,0,0,0,0,0
3,1,716,1,0,0,1,C,3,0.1,0.2,0.2,1,-0.466666666666667,0,0,0,0,0,0
2,1,499,1,0,1,0,B,2,0.1,0.2,0.3,0,-0.366666666666667,0,0,0,0,0,0
2,1,526,1,0,1,0,B,2,0.1,0.3,0.2,1,-0.366666666666667,0,0,0,0,0,0
1,1,503,1,1,0,0,A,1,0.1,0.4,0.1,0,-0.266666666666667,0,0,0,0,0,0
3,1,466,1,0,0,1,C,3,0.2,0.4,0.1,0,-0.6,0,0,0,0,0,0
3,1,371,0,0,0,1,C,3,0.1,0.4,0.2,0,0.4,0,0,0,0,1,0
3,1,342,1,0,0,1,C,3,0.1,0.4,0.2,0,-0.266666666666667,0,0,0,0,0,0
3,1,506,0,0,0,1,C,3,0.1,0.3,0.3,1,0.3,0,0,0,0,1,0
1,1,670,1,1,0,0,A,1,0.1,0.3,0.3,0,-0.0333333333333333,0,0,0,0,0,0
3,1,470,0,0,0,1,C,3,0.2,0.3,0.3,1,-0.0333333333333333,0,1,0,0,0,0
2,1,515,1,0,1,0,B,2,0.2,0.2,0.3,0,-0.0333333333333333,0,0,0,0,0,0
1,1,424,1,1,0,0,A,1,0.2,0.3,0.2,0,-0.0333333333333333,0,0,0,0,0,0
2,1,627,1,0,1,0,B,2,0.3,0.2,0.2,0,-0.0333333333333333,0,0,0,0,0,0
3,1,507,1,0,0,1,C,3,0.3,0.2,0.2,0,-0.0333333333333333,0,0,0,0,0,0
3,1,625,1,0,0,1,C,3,0.2,0.2,0.3,1,-0.366666666666667,0,0,0,0,0,0
3,1,403,1,0,0,1,C,3,0.2,0.2,0.3,1,-0.0333333333333333,0,0,0,0,0,0
1,1,386,1,1,0,0,A,1,0.2,0.2,0.4,0,-0.6,0,0,0,0,0,0
2,1,389,0,0,1,0,B,2,0.3,0.2,0.3,0,0.3,0,1,0,0,0,0
3,1,476,0,0,0,1,C,3,0.3,0.2,0.3,1,-0.0333333333333333,0,0,0,0,0,0
2,1,551,1,0,1,0,B,2,0.2,0.2,0.3,0,-0.366666666666667,0,0,0,0,0,0
1,1,630,1,1,0,0,A,1,0.2,0.3,0.3,0,-0.366666666666667,0,0,0,0,0,0
3,1,421,1,0,0,1,C,3,0.3,0.2,0.3,1,-0.366666666666667,0,0,0,0,0,0
1,1,415,1,1,0,0,A,1,0.2,0.2,0.4,0,-0.266666666666667,0,0,0,0,0,0
2,1,473,1,0,1,0,B,2,0.3,0.1,0.4,0,0.0666666666666667,0,0,0,0,0,0
2,1,385,1,0,1,0,B,2,0.3,0.2,0.3,0,-0.366666666666667,0,0,0,0,0,0
3,1,544,1,0,0,1,C,3,0.3,0.3,0.2,0,-0.0333333333333333,0,0,0,0,0,0
2,1,702,0,0,1,0,B,2,0.3,0.3,0.2,1,0.3,0,1,0,0,0,0
1,1,575,1,1,0,0,A,1,0.2,0.3,0.2,0,-0.366666666666667,0,0,0,0,0,0
2,1,425,1,0,1,0,B,2,0.3,0.3,0.2,1,-0.366666666666667,0,0,0,0,0,0
1,1,543,1,1,0,0,A,1,0.3,0.4,0.2,0,0.0666666666666667,0,0,0,0,0,0
1,1,532,1,1,0,0,A,1,0.4,0.3,0.2,1,0.0666666666666667,0,0,0,0,0,0
3,1,445,1,0,0,1,C,3,0.4,0.3,0.2,0,-0.6,0,0,0,0,0,0
2,1,470,1,0,1,0,B,2,0.4,0.3,0.2,0,-0.266666666666667,0,0,0,0,0,0
2,1,1094,1,0,1,0,B,2,0.3,0.4,0.2,1,0.0666666666666667,0,0,0,0,0,0
2,1,511,1,0,1,0,B,2,0.3,0.4,0.2,1,-0.266666666666667,0,0,0,0,0,0
2,1,432,1,0,1,0,B,2,0.3,0.4,0.2,1,0.0666666666666667,0,0,0,0,0,0
2,1,559,1,0,1,0,B,2,0.3,0.5,0.1,1,0.166666666666667,0,0,0,0,0,0
3,1,560,1,0,0,1,C,3,0.3,0.6,0.1,0,-0.4,0,0,0,0,0,0
1,1,471,1,1,0,0,A,1,0.2,0.6,0.2,0,-0.4,0,0,0,0,0,0
2,1,533,1,0,1,0,B,2,0.3,0.5,0.2,1,-0.166666666666667,0,0,0,0,0,0
3,1,491,0,0,0,1,C,3,0.2,0.6,0.2,0,0.6,0,1,1,0,0,0
1,1,471,1,1,0,0,A,1,0.1,0.6,0.2,0,0.266666666666667,0,0,0,0,0,0
3,1,527,0,0,0,1,C,3,0.2,0.6,0.1,0,0.266666666666667,0,1,0,0,0,0
2,1,521,1,0,1,0,B,2,0.2,0.5,0.1,1,0.166666666666667,0,0,0,0,0,0
1,1,432,1,1,0,0,A,1,0.2,0.5,0.1,0,0.166666666666667,0,0,0,0,0,0
3,1,438,0,0,0,1,C,3,0.3,0.4,0.1,0,0.4,0,1,0,0,0,0
1,1,475,1,1,0,0,A,1,0.3,0.3,0.1,1,-0.366666666666667,0,0,0,0,0,0
3,1,473,1,0,0,1,C,3,0.4,0.2,0.1,0,-0.266666666666667,0,0,0,0,0,0
3,1,540,0,0,0,1,C,3,0.4,0.2,0.1,0,0.0666666666666667,0,0,0,0,1,0
1,1,364,1,1,0,0,A,1,0.3,0.2,0.1,1,-0.0333333333333333,0,0,0,0,0,0
1,1,556,0,1,0,0,A,1,0.4,0.1,0.1,1,0.4,0,0,0,0,1,0
3,1,571,1,0,0,1,C,3,0.4,0.1,0.1,0,0.0666666666666667,0,0,0,0,0,0
2,1,655,1,0,1,0,B,2,0.3,0.1,0.2,0,-0.0333333333333333,0,0,0,0,0,0
2,1,451,1,0,1,0,B,2,0.3,0.2,0.2,0,-0.7,0,0,0,0,0,0
3,1,488,1,0,0,1,C,3,0.3,0.2,0.2,0,-0.0333333333333333,0,0,0,0,0,0
3,1,537,1,0,0,1,C,3,0.2,0.2,0.3,1,-0.366666666666667,0,0,0,0,0,0
2,1,542,1,0,1,0,B,2,0.2,0.2,0.4,0,0.0666666666666667,0,0,0,0,0,0
3,1,1025,1,0,0,1,C,3,0.1,0.3,0.4,1,-0.266666666666667,0,0,0,0,0,0
3,1,810,0,0,0,1,C,3,0.1,0.3,0.4,1,0.0666666666666667,0,0,0,0,1,0
3,1,416,1,0,0,1,C,3,0.1,0.3,0.4,1,0.0666666666666667,0,0,0,0,0,0
3,1,444,0,0,0,1,C,3,0,0.3,0.5,1,0.166666666666667,0,0,0,0,1,0
2,1,458,1,0,1,0,B,2,0,0.3,0.5,0,-0.5,0,0,0,0,0,0
2,1,569,1,0,1,0,B,2,0,0.4,0.4,1,-0.266666666666667,0,0,0,0,0,0
2,1,640,1,0,1,0,B,2,0,0.4,0.4,1,0.0666666666666667,0,0,0,0,0,0
2,1,549,1,0,1,0,B,2,0,0.4,0.4,1,-0.266666666666667,0,0,0,0,0,0
3,1,530,1,0,0,1,C,3,0,0.5,0.3,0,0.166666666666667,0,0,0,0,0,0
2,1,522,1,0,1,0,B,2,0,0.5,0.3,1,-0.166666666666667,0,0,0,0,0,0
3,1,992,0,0,0,1,C,3,0,0.5,0.3,0,0.5,0,1,1,0,0,0
2,1,580,1,0,1,0,B,2,0,0.5,0.2,1,-0.5,0,0,0,0,0,0
2,1,612,1,0,1,0,B,2,0,0.6,0.2,1,0.266666666666667,0,0,0,0,0,0
3,1,424,0,0,0,1,C,3,0,0.7,0.1,0,0.7,0,1,1,0,0,0
3,1,465,1,0,0,1,C,3,0,0.7,0.1,0,0.366666666666667,0,0,0,0,0,0
2,1,642,1,0,1,0,B,2,0,0.6,0.2,1,-0.0666666666666667,0,0,0,0,0,0
3,1,481,1,0,0,1,C,3,0,0.6,0.2,0,-0.0666666666666667,0,0,0,0,0,0
2,1,509,0,0,1,0,B,2,0,0.5,0.3,1,0.166666666666667,0,1,0,1,0,0
2,1,604,1,0,1,0,B,2,0,0.4,0.3,1,0.0666666666666667,0,0,0,0,0,0
2,1,448,1,0,1,0,B,2,0,0.5,0.2,1,0.166666666666667,0,0,0,0,0,0
3,1,405,0,0,0,1,C,3,0,0.5,0.2,0,-0.166666666666667,0,1,1,0,0,0
2,1,561,1,0,1,0,B,2,0,0.5,0.2,1,0.166666666666667,0,0,0,0,0,0
1,1,332,1,1,0,0,A,1,0,0.5,0.2,0,0.166666666666667,0,0,0,0,0,0
2,1,492,0,0,1,0,B,2,0.1,0.4,0.2,1,0.4,0,1,0,1,0,0
3,1,443,1,0,0,1,C,3,0.1,0.4,0.2,0,0.0666666666666667,0,0,0,0,0,0
3,1,487,1,0,0,1,C,3,0.1,0.4,0.2,0,0.0666666666666667,0,0,0,0,0,0
2,1,580,1,0,1,0,B,2,0.1,0.3,0.3,1,-0.366666666666667,0,0,0,0,0,0
2,1,464,1,0,1,0,B,2,0.1,0.4,0.2,1,-0.6,0,0,0,0,0,0
1,1,436,1,1,0,0,A,1,0.1,0.5,0.2,0,0.166666666666667,0,0,0,0,0,0
2,1,587,1,0,1,0,B,2,0.2,0.4,0.2,1,-0.266666666666667,0,0,0,0,0,0
3,1,645,1,0,0,1,C,3,0.2,0.4,0.2,0,-0.266666666666667,0,0,0,0,0,0
1,1,2368,0,1,0,0,A,1,0.2,0.4,0.3,0,0.0666666666666667,0,1,0,0,0,0
2,1,421,1,0,1,0,B,2,0.2,0.3,0.3,1,-0.0333333333333333,0,0,0,0,0,0
3,1,468,1,0,0,1,C,3,0.1,0.4,0.3,0,-0.266666666666667,0,0,0,0,0,0
2,1,659,1,0,1,0,B,2,0.1,0.4,0.4,1,-0.266666666666667,0,0,0,0,0,0
3,1,500,1,0,0,1,C,3,0.1,0.5,0.3,0,-0.166666666666667,0,0,0,0,0,0
2,1,510,1,0,1,0,B,2,0.1,0.5,0.3,1,-0.166666666666667,0,0,0,0,0,0
1,1,507,1,1,0,0,A,1,0.1,0.5,0.3,0,0.166666666666667,0,0,0,0,0,0
1,1,704,1,1,0,0,A,1,0.2,0.4,0.3,0,-0.266666666666667,0,0,0,0,0,0
1,1,814,1,1,0,0,A,1,0.2,0.4,0.3,0,-0.266666666666667,0,0,0,0,0,0
1,1,610,1,1,0,0,A,1,0.3,0.3,0.3,1,-0.366666666666667,0,0,0,0,0,0
2,1,1394,0,0,1,0,B,2,0.4,0.3,0.2,0,0.4,0,1,1,0,0,0
2,1,561,1,0,1,0,B,2,0.4,0.3,0.2,0,-0.266666666666667,0,0,0,0,0,0
2,1,446,1,0,1,0,B,2,0.4,0.3,0.2,0,-0.266666666666667,0,0,0,0,0,0
1,1,425,0,1,0,0,A,1,0.4,0.4,0.1,1,0.4,0,1,0,1,0,0
3,1,521,1,0,0,1,C,3,0.4,0.3,0.1,0,-0.266666666666667,0,0,0,0,0,0
1,1,524,1,1,0,0,A,1,0.4,0.3,0.1,1,0.0666666666666667,0,0,0,0,0,0
3,1,1044,0,0,0,1,C,3,0.5,0.2,0.1,0,0.5,0,1,1,0,0,0
1,1,512,1,1,0,0,A,1,0.4,0.2,0.1,1,0.0666666666666667,0,0,0,0,0,0
2,1,371,1,0,1,0,B,2,0.4,0.2,0.1,0,-0.6,0,0,0,0,0,0
1,1,369,1,1,0,0,A,1,0.3,0.3,0.1,1,-0.0333333333333333,0,0,0,0,0,0
3,1,399,1,0,0,1,C,3,0.3,0.3,0.1,0,-0.366666666666667,0,0,0,0,0,0
3,1,393,1,0,0,1,C,3,0.3,0.3,0.2,0,-0.366666666666667,0,0,0,0,0,0
2,1,684,1,0,1,0,B,2,0.3,0.2,0.3,0,-0.0333333333333333,0,0,0,0,0,0
3,1,1184,0,0,0,1,C,3,0.3,0.2,0.3,1,-0.0333333333333333,0,1,0,0,0,0
3,1,443,1,0,0,1,C,3,0.3,0.2,0.3,1,-0.366666666666667,0,0,0,0,0,0
2,1,484,1,0,1,0,B,2,0.3,0.2,0.3,0,-0.366666666666667,0,0,0,0,0,0
3,1,417,1,0,0,1,C,3,0.2,0.3,0.3,1,-0.0333333333333333,0,0,0,0,0,0
2,1,433,0,0,1,0,B,2,0.2,0.3,0.4,0,0.0666666666666667,0,1,1,0,0,0
3,1,522,1,0,0,1,C,3,0.1,0.3,0.4,1,0.0666666666666667,0,0,0,0,0,0
1,1,675,1,1,0,0,A,1,0.1,0.2,0.5,0,-0.5,0,0,0,0,0,0
3,1,595,0,0,0,1,C,3,0.1,0.2,0.5,1,0.5,0,1,0,1,0,0
3,1,403,1,0,0,1,C,3,0.1,0.2,0.4,1,0.0666666666666667,0,0,0,0,0,0
3,1,271,1,0,0,1,C,3,0.1,0.2,0.4,1,-0.266666666666667,0,0,0,0,0,0
1,1,472,0,1,0,0,A,1,0.1,0.1,0.5,0,0.166666666666667,0,1,1,0,0,0
1,1,317,1,1,0,0,A,1,0.1,0.1,0.5,0,0.166666666666667,0,0,0,0,0,0
2,1,674,1,0,1,0,B,2,0.2,0.1,0.4,0,-0.6,0,0,0,0,0,0
3,1,758,0,0,0,1,C,3,0.2,0.1,0.4,1,0.4,0,1,0,1,0,0
3,1,459,1,0,0,1,C,3,0.2,0.1,0.3,1,-0.0333333333333333,0,0,0,0,0,0
