choice_numeric_unfiltered,trial_filter,stim_RT,stim_ACC,achoice,bchoice,cchoice,stim_choice,stim_choice_numeric,prob_1,prob_2,prob_3,best_choice,above_chance_diff,prob_switch_err,spont_switch_err,erratic_spont,explore_switch,error_NOS,perseverative
2,1,2795,0,0,1,0,B,2,NaN,NaN,NaN,0,NaN,0,0,0,0,0,0
3,1,1512,0,0,0,1,C,3,0,0,0,1,0,0,0,0,0,0,0
3,1,620,1,0,0,1,C,3,0,0,0,1,-0.333333333333333,0,0,0,0,0,0
1,1,625,1,1,0,0,A,1,0,0,0.333333333333333,0,0,0,0,0,0,0,0
1,1,585,1,1,0,0,A,1,0.25,0,0.25,1,-0.416666666666667,0,0,0,0,0,0
2,1,783,1,0,1,0,B,2,0.4,0,0.2,0,-0.266666666666667,0,0,0,0,0,0
3,1,573,0,0,0,1,C,3,0.333333333333333,0.166666666666667,0.166666666666667,0,0.333333333333333,0,1,0,0,0,0
2,1,679,1,0,1,0,B,2,0.285714285714286,0.142857142857143,0.142857142857143,0,-0.0476190476190476,0,0,0,0,0,0
2,1,499,1,0,1,0,B,2,0.25,0.25,0.125,1,-0.0833333333333333,0,0,0,0,0,0
1,1,407,1,1,0,0,A,1,0.222222222222222,0.333333333333333,0.111111111111111,0,0,0,0,0,0,0,0
1,1,545,1,1,0,0,A,1,0.3,0.3,0.1,1,-0.0333333333333333,0,0,0,0,0,0
1,1,566,1,1,0,0,A,1,0.4,0.3,0.1,1,0.0666666666666667,0,0,0,0,0,0
3,1,602,0,0,0,1,C,3,0.5,0.3,0.1,0,0.166666666666667,0,1,1,0,0,0
2,1,569,0,0,1,0,B,2,0.5,0.3,0,0,0.5,0,0,0,0,0,0
2,1,490,1,0,1,0,B,2,0.4,0.3,0,0,-0.266666666666667,0,0,0,0,0,0
2,1,987,1,0,1,0,B,2,0.3,0.4,0,1,0.0666666666666667,0,0,0,0,0,0
3,1,589,1,0,0,1,C,3,0.3,0.4,0,0,0.0666666666666667,0,0,0,0,0,0
1,1,585,1,1,0,0,A,1,0.3,0.4,0.1,0,0.0666666666666667,0,0,0,0,0,0
2,1,508,1,0,1,0,B,2,0.4,0.3,0.1,0,-0.266666666666667,0,0,0,0,0,0
1,1,702,1,1,0,0,A,1,0.4,0.3,0.1,1,0.0666666666666667,0,0,0,0,0,0
3,1,646,1,0,0,1,C,3,0.4,0.3,0.1,0,0.0666666666666667,0,0,0,0,0,0
2,1,619,0,0,1,0,B,2,0.3,0.3,0.2,1,0.3,0,1,0,0,0,0
3,1,467,1,0,0,1,C,3,0.2,0.3,0.2,0,-0.0333333333333333,0,0,0,0,0,0
3,1,434,0,0,0,1,C,3,0.2,0.3,0.3,1,0.3,0,0,0,0,1,0
1,1,494,1,1,0,0,A,1,0.2,0.3,0.3,0,-0.366666666666667,0,0,0,0,0,0
1,1,365,1,1,0,0,A,1,0.3,0.2,0.3,1,-0.0333333333333333,0,0,0,0,0,0
1,1,507,1,1,0,0,A,1,0.4,0.1,0.3,1,0.0666666666666667,0,0,0,0,0,0
2,1,542,1,0,1,0,B,2,0.5,0.1,0.2,0,0.166666666666667,0,0,0,0,0,0
1,1,422,1,1,0,0,A,1,0.4,0.2,0.2,1,0.0666666666666667,0,0,0,0,0,0
3,1,476,1,0,0,1,C,3,0.5,0.1,0.2,0,0.166666666666667,0,0,0,0,0,0
3,1,409,1,0,0,1,C,3,0.4,0.1,0.3,0,0.0666666666666667,0,0,0,0,0,0
1,1,407,0,1,0,0,A,1,0.4,0.1,0.3,1,0.4,0,1,0,1,0,0
2,1,380,0,0,1,0,B,2,0.4,0.1,0.3,0,0.0666666666666667,1,0,0,0,0,0
3,1,393,0,0,0,1,C,3,0.4,0.1,0.2,0,0.0666666666666667,0,0,0,0,0,0
3,1,298,0,0,0,1,C,3,0.4,0.1,0.2,0,0.4,0,0,0,0,1,0
1,1,513,0,1,0,0,A,1,0.3,0.1,0.2,1,0.3,0,0,0,0,0,0
2,1,423,0,0,1,0,B,2,0.2,0.1,0.2,0,0.2,1,0,0,0,0,0
3,1,288,0,0,0,1,C,3,0.1,0.1,0.2,1,0.2,0,0,0,0,0,0
3,1,459,1,0,0,1,C,3,0.1,0,0.2,1,-0.133333333333333,0,0,0,0,0,0
1,1,516,0,1,0,0,A,1,0,0,0.3,0,0.3,0,1,1,0,0,0
1,1,555,0,1,0,0,A,1,0,0,0.2,0,0.2,0,0,0,0,1,0
1,1,364,0,1,0,0,A,1,0,0,0.1,0,-0.233333333333333,0,0,0,0,1,0
2,1,651,0,0,1,0,B,2,0,0,0.1,0,0.1,0,0,0,0,0,0
1,1,364,0,1,0,0,A,1,0,0,0.1,0,0.1,0,0,0,0,0,0
3,1,507,1,0,0,1,C,3,0,0,0.1,1,-0.566666666666667,0,0,0,0,0,0
3,1,420,0,0,0,1,C,3,0,0,0.2,1,-0.133333333333333,0,0,0,0,1,0
2,1,415,0,0,1,0,B,2,0,0,0.2,0,0.2,1,0,0,0,0,0
3,1,413,1,0,0,1,C,3,0,0,0.2,1,-0.133333333333333,0,0,0,0,0,0
1,1,521,0,1,0,0,A,1,0,0,0.3,0,-0.0333333333333333,0,1,1,0,0,0
2,1,540,0,0,1,0,B,2,0,0,0.2,0,0.2,0,0,0,0,0,0
1,1,469,0,1,0,0,A,1,0,0,0.2,0,-0.133333333333333,0,0,0,0,0,0
1,1,528,0,1,0,0,A,1,0,0,0.2,0,0.2,0,0,0,0,1,0
1,1,751,0,1,0,0,A,1,0,0,0.2,0,0.2,0,0,0,0,1,0
2,1,473,0,0,1,0,B,2,0,0,0.2,0,0.2,0,0,0,0,0,0
2,1,252,0,0,1,0,B,2,0,0,0.2,0,0.2,0,0,0,0,1,0
2,1,410,1,0,1,0,B,2,0,0,0.1,0,-0.233333333333333,0,0,0,0,0,0
1,1,483,0,1,0,0,A,1,0,0.1,0.1,0,0.1,0,1,0,0,0,0
3,1,418,0,0,0,1,C,3,0,0.1,0.1,1,0.1,0,0,0,0,0,0
1,1,610,0,1,0,0,A,1,0,0.1,0,0,0.1,1,0,0,0,0,0
1,1,365,0,1,0,0,A,1,0,0.1,0,0,0.1,0,0,0,0,1,0
1,1,477,1,1,0,0,A,1,0,0.1,0,0,-0.566666666666667,0,0,0,0,0,0
2,1,965,1,0,1,0,B,2,0.1,0.1,0,1,-0.566666666666667,0,0,0,0,0,0
2,1,553,0,0,1,0,B,2,0.1,0.2,0,1,-0.133333333333333,0,0,0,0,1,0
1,1,248,0,1,0,0,A,1,0.1,0.2,0,0,-0.133333333333333,1,0,0,0,0,0
1,1,420,1,1,0,0,A,1,0.1,0.2,0,0,-0.133333333333333,0,0,0,0,0,0
1,1,723,1,1,0,0,A,1,0.2,0.2,0,1,-0.133333333333333,0,0,0,0,0,0
2,1,612,1,0,1,0,B,2,0.3,0.1,0,0,-0.0333333333333333,0,0,0,0,0,0
2,1,394,1,0,1,0,B,2,0.3,0.2,0,0,-0.0333333333333333,0,0,0,0,0,0
3,1,320,1,0,0,1,C,3,0.3,0.3,0,0,-0.0333333333333333,0,0,0,0,0,0
1,1,535,1,1,0,0,A,1,0.3,0.3,0.1,1,-0.0333333333333333,0,0,0,0,0,0
1,1,586,1,1,0,0,A,1,0.4,0.3,0.1,1,0.0666666666666667,0,0,0,0,0,0
2,1,294,0,0,1,0,B,2,0.4,0.3,0.1,0,0.4,0,1,1,0,0,0
3,1,419,0,0,0,1,C,3,0.4,0.2,0.1,0,0.0666666666666667,0,0,0,0,0,0
2,1,743,1,0,1,0,B,2,0.4,0.2,0.1,0,0.0666666666666667,0,0,0,0,0,0
2,1,578,1,0,1,0,B,2,0.4,0.3,0.1,0,0.0666666666666667,0,0,0,0,0,0
2,1,489,1,0,1,0,B,2,0.3,0.4,0.1,1,0.0666666666666667,0,0,0,0,0,0
1,1,394,1,1,0,0,A,1,0.2,0.5,0.1,0,0.166666666666667,0,0,0,0,0,0
2,1,679,1,0,1,0,B,2,0.3,0.4,0.1,1,0.0666666666666667,0,0,0,0,0,0
1,1,513,1,1,0,0,A,1,0.3,0.4,0.1,0,0.0666666666666667,0,0,0,0,0,0
3,1,347,0,0,0,1,C,3,0.4,0.4,0,0,0.0666666666666667,0,1,0,0,0,0
3,1,638,0,0,0,1,C,3,0.3,0.4,0,0,0.4,0,0,0,0,1,0
1,1,390,1,1,0,0,A,1,0.2,0.4,0,0,0.0666666666666667,0,0,0,0,0,0
2,1,567,0,0,1,0,B,2,0.3,0.4,0,1,0.4,0,1,0,1,0,0
3,1,452,0,0,0,1,C,3,0.3,0.4,0,0,0.4,1,0,0,0,0,0
3,1,397,1,0,0,1,C,3,0.3,0.3,0,0,-0.366666666666667,0,0,0,0,0,0
1,1,408,1,1,0,0,A,1,0.3,0.2,0.1,1,-0.0333333333333333,0,0,0,0,0,0
3,1,423,1,0,0,1,C,3,0.4,0.1,0.1,0,0.0666666666666667,0,0,0,0,0,0
3,1,483,1,0,0,1,C,3,0.3,0.1,0.2,0,-0.0333333333333333,0,0,0,0,0,0
2,1,574,1,0,1,0,B,2,0.3,0,0.3,0,-0.0333333333333333,0,0,0,0,0,0
3,1,634,1,0,0,1,C,3,0.2,0.1,0.3,1,-0.366666666666667,0,0,0,0,0,0
1,1,532,0,1,0,0,A,1,0.2,0.1,0.4,0,0.4,0,1,1,0,0,0
1,1,455,0,1,0,0,A,1,0.2,0.1,0.4,0,0.4,0,0,0,0,1,0
3,1,431,0,0,0,1,C,3,0.1,0.1,0.4,1,0.0666666666666667,0,0,0,0,0,0
3,1,394,0,0,0,1,C,3,0.1,0.1,0.4,1,0.4,0,0,0,0,1,0
3,1,358,0,0,0,1,C,3,0.1,0.1,0.4,1,0.4,0,0,0,0,1,0
1,1,370,0,1,0,0,A,1,0.1,0.1,0.3,0,-0.0333333333333333,1,0,0,0,0,0
3,1,298,0,0,0,1,C,3,0,0.1,0.3,1,-0.0333333333333333,0,0,0,0,0,0
3,1,401,0,0,0,1,C,3,0,0.1,0.2,1,-0.133333333333333,0,0,0,0,1,0
2,1,248,0,0,1,0,B,2,0,0.1,0.1,1,-0.233333333333333,1,0,0,0,0,0
3,1,441,0,0,0,1,C,3,0,0,0.1,1,0.1,1,0,0,0,0,0
1,1,344,1,1,0,0,A,1,0,0,0,1,-0.333333333333333,0,0,0,0,0,0
1,1,763,0,1,0,0,A,1,0.1,0,0,1,-0.233333333333333,0,0,0,0,1,0
2,1,373,0,0,1,0,B,2,0.1,0,0,0,0.1,1,0,0,0,0,0
3,1,810,0,0,0,1,C,3,0.1,0,0,0,0.1,0,0,0,0,0,0
3,1,1138,0,0,0,1,C,3,0.1,0,0,0,0.1,0,0,0,0,1,0
3,1,1722,1,0,0,1,C,3,0.1,0,0,0,-0.233333333333333,0,0,0,0,0,0
3,1,517,0,0,0,1,C,3,0.1,0,0.1,1,0.1,0,0,0,0,1,0
2,1,619,1,0,1,0,B,2,0.1,0,0.1,0,-0.233333333333333,0,0,0,0,0,0
2,1,668,0,0,1,0,B,2,0.1,0.1,0.1,1,0.1,0,0,0,0,1,0
3,1,564,0,0,0,1,C,3,0.1,0.1,0.1,1,0.1,1,0,0,0,0,0
1,1,383,0,1,0,0,A,1,0.1,0.1,0.1,1,0.1,1,0,0,0,0,0
3,1,333,0,0,0,1,C,3,0,0.1,0.1,1,0.1,1,0,0,0,0,0
3,1,707,1,0,0,1,C,3,0,0.1,0.1,1,-0.233333333333333,0,0,0,0,0,0
2,1,607,0,0,1,0,B,2,0,0.1,0.2,0,-0.133333333333333,0,1,1,0,0,0
1,1,582,0,1,0,0,A,1,0,0.1,0.2,0,0.2,0,0,0,0,0,0
3,1,721,0,0,0,1,C,3,0,0.1,0.2,1,0.2,0,0,0,0,0,0
1,1,1630,0,1,0,0,A,1,0,0.1,0.1,0,0.1,1,0,0,0,0,0
3,1,596,0,0,0,1,C,3,0,0.1,0.1,1,0.1,0,0,0,0,0,0
3,1,383,0,0,0,1,C,3,0,0,0.1,1,0.1,0,0,0,0,1,0
1,1,265,0,1,0,0,A,1,0,0,0.1,0,-0.233333333333333,1,0,0,0,0,0
2,1,591,0,0,1,0,B,2,0,0,0.1,0,-0.233333333333333,0,0,0,0,0,0
3,1,835,1,0,0,1,C,3,0,0,0.1,1,-0.233333333333333,0,0,0,0,0,0
1,1,715,0,1,0,0,A,1,0,0,0.2,0,-0.133333333333333,0,1,1,0,0,0
3,1,399,1,0,0,1,C,3,0,0,0.1,1,-0.233333333333333,0,0,0,0,0,0
2,1,410,0,0,1,0,B,2,0,0,0.2,0,-0.133333333333333,0,1,1,0,0,0
2,1,451,1,0,1,0,B,2,0,0,0.2,0,-0.466666666666667,0,0,0,0,0,0
3,1,516,1,0,0,1,C,3,0,0.1,0.2,1,-0.133333333333333,0,0,0,0,0,0
3,1,463,0,0,0,1,C,3,0,0.1,0.3,1,-0.0333333333333333,0,0,0,0,1,0
3,1,331,1,0,0,1,C,3,0,0.1,0.3,1,-0.366666666666667,0,0,0,0,0,0
1,1,718,1,1,0,0,A,1,0,0.1,0.4,0,-0.266666666666667,0,0,0,0,0,0
1,1,436,0,1,0,0,A,1,0.1,0.1,0.4,0,0.4,0,0,0,0,1,0
2,1,503,1,0,1,0,B,2,0.1,0.1,0.4,0,-0.266666666666667,0,0,0,0,0,0
2,1,634,0,0,1,0,B,2,0.1,0.2,0.3,0,0.3,0,0,0,0,1,0
1,1,392,1,1,0,0,A,1,0.1,0.2,0.3,0,-0.0333333333333333,0,0,0,0,0,0
1,1,419,1,1,0,0,A,1,0.2,0.2,0.2,1,-0.133333333333333,0,0,0,0,0,0
3,1,428,0,0,0,1,C,3,0.3,0.2,0.2,0,-0.0333333333333333,0,1,1,0,0,0
1,1,286,0,1,0,0,A,1,0.3,0.1,0.2,1,-0.0333333333333333,0,0,0,0,0,0
1,1,396,1,1,0,0,A,1,0.3,0.1,0.1,1,-0.0333333333333333,0,0,0,0,0,0
3,1,1021,1,0,0,1,C,3,0.4,0.1,0.1,0,0.0666666666666667,0,0,0,0,0,0
2,1,701,1,0,1,0,B,2,0.4,0.1,0.1,0,0.0666666666666667,0,0,0,0,0,0
3,1,611,1,0,0,1,C,3,0.3,0.2,0.1,0,-0.0333333333333333,0,0,0,0,0,0
1,1,666,1,1,0,0,A,1,0.3,0.2,0.2,1,-0.0333333333333333,0,0,0,0,0,0
2,1,678,0,0,1,0,B,2,0.4,0.1,0.2,0,0.4,0,1,1,0,0,0
1,1,400,1,1,0,0,A,1,0.4,0.1,0.2,1,0.0666666666666667,0,0,0,0,0,0
2,1,1121,1,0,1,0,B,2,0.4,0.1,0.2,0,0.0666666666666667,0,0,0,0,0,0
1,1,1001,1,1,0,0,A,1,0.3,0.2,0.2,1,-0.0333333333333333,0,0,0,0,0,0
2,1,830,1,0,1,0,B,2,0.4,0.2,0.2,0,0.0666666666666667,0,0,0,0,0,0
3,1,779,1,0,0,1,C,3,0.4,0.3,0.2,0,0.0666666666666667,0,0,0,0,0,0
1,1,826,1,1,0,0,A,1,0.3,0.3,0.3,1,-0.0333333333333333,0,0,0,0,0,0
1,1,487,1,1,0,0,A,1,0.4,0.3,0.2,1,0.0666666666666667,0,0,0,0,0,0
3,1,655,0,0,0,1,C,3,0.5,0.2,0.2,0,-0.166666666666667,0,1,1,0,0,0
1,1,471,0,1,0,0,A,1,0.5,0.2,0.1,1,-0.166666666666667,0,0,0,0,0,0
2,1,521,0,0,1,0,B,2,0.4,0.2,0.1,0,0.4,1,0,0,0,0,0
2,1,625,0,0,1,0,B,2,0.4,0.2,0.1,0,-0.266666666666667,0,0,0,0,1,0
3,1,493,0,0,0,1,C,3,0.3,0.2,0.1,0,-0.366666666666667,0,0,0,0,0,0
2,1,334,0,0,1,0,B,2,0.3,0.1,0.1,0,0.3,0,0,0,0,0,0
1,1,313,0,1,0,0,A,1,0.2,0.1,0.1,1,0.2,0,0,0,0,0,0
1,1,437,1,1,0,0,A,1,0.2,0,0.1,1,-0.466666666666667,0,0,0,0,0,0
1,1,467,0,1,0,0,A,1,0.3,0,0,1,0.3,0,0,0,0,1,1
3,1,477,1,0,0,1,C,3,0.2,0,0,0,-0.466666666666667,0,0,0,0,0,0
3,1,497,1,0,0,1,C,3,0.1,0,0.1,1,-0.566666666666667,0,0,0,0,0,0
1,1,816,0,1,0,0,A,1,0.1,0,0.2,0,0.2,0,1,1,0,0,0
3,1,399,0,0,0,1,C,3,0.1,0,0.2,1,-0.466666666666667,0,0,0,0,0,0
3,1,413,1,0,0,1,C,3,0.1,0,0.2,1,-0.133333333333333,0,0,0,0,0,0
3,1,663,0,0,0,1,C,3,0.1,0,0.3,1,0.3,0,0,0,0,1,1
1,1,362,0,1,0,0,A,1,0.1,0,0.3,0,-0.366666666666667,1,0,0,0,0,0
2,1,874,1,0,1,0,B,2,0.1,0,0.3,0,-0.7,0,0,0,0,0,0
3,1,409,0,0,0,1,C,3,0.1,0.1,0.3,1,0.3,0,1,0,0,0,0
2,1,358,1,0,1,0,B,2,0,0.1,0.3,0,-0.7,0,0,0,0,0,0
3,1,525,0,0,0,1,C,3,0,0.2,0.3,1,0.3,0,1,0,0,0,0
1,1,469,0,1,0,0,A,1,0,0.2,0.2,0,-0.466666666666667,1,0,0,0,0,0
1,1,630,0,1,0,0,A,1,0,0.2,0.1,0,0.2,0,0,0,0,1,0
1,1,461,0,1,0,0,A,1,0,0.2,0.1,0,0.2,0,0,0,0,1,0
1,1,603,1,1,0,0,A,1,0,0.2,0.1,0,-0.466666666666667,0,0,0,0,0,0
1,1,442,1,1,0,0,A,1,0.1,0.2,0,0,-0.466666666666667,0,0,0,0,0,0
3,1,510,1,0,0,1,C,3,0.2,0.2,0,0,-0.466666666666667,0,0,0,0,0,0
1,1,724,1,1,0,0,A,1,0.2,0.2,0.1,1,-0.466666666666667,0,0,0,0,0,0
3,1,629,1,0,0,1,C,3,0.3,0.1,0.1,0,-0.366666666666667,0,0,0,0,0,0
1,1,676,1,1,0,0,A,1,0.3,0.1,0.2,1,-0.7,0,0,0,0,0,0
2,1,540,0,0,1,0,B,2,0.4,0,0.2,0,0.4,0,1,1,0,0,0
1,1,597,1,1,0,0,A,1,0.4,0,0.2,1,-0.266666666666667,0,0,0,0,0,0
1,1,537,0,1,0,0,A,1,0.5,0,0.2,1,0.5,0,0,0,0,1,0
2,1,433,0,0,1,0,B,2,0.5,0,0.2,0,0.166666666666667,1,0,0,0,0,0
1,1,769,0,1,0,0,A,1,0.5,0,0.2,1,0.166666666666667,0,0,0,0,0,0
3,1,281,0,0,0,1,C,3,0.4,0,0.2,0,0.0666666666666667,1,0,0,0,0,0
3,1,434,0,0,0,1,C,3,0.3,0,0.2,0,-0.0333333333333333,0,0,0,0,1,0
3,1,408,0,0,0,1,C,3,0.3,0,0.1,0,-0.0333333333333333,0,0,0,0,1,0
1,1,619,0,1,0,0,A,1,0.2,0,0.1,1,-0.133333333333333,0,0,0,0,0,0
2,1,335,1,0,1,0,B,2,0.2,0,0,0,-0.466666666666667,0,0,0,0,0,0
3,1,321,1,0,0,1,C,3,0.1,0.1,0,0,-0.233333333333333,0,0,0,0,0,0
1,1,487,1,1,0,0,A,1,0.1,0.1,0.1,1,-0.9,0,0,0,0,0,0
2,1,677,0,0,1,0,B,2,0.1,0.1,0.1,1,0.1,0,1,1,0,0,0
3,1,336,0,0,0,1,C,3,0.1,0.1,0.1,1,-0.233333333333333,1,0,0,0,0,0
2,1,433,1,0,1,0,B,2,0.1,0.1,0.1,1,-0.566666666666667,0,0,0,0,0,0
1,1,390,1,1,0,0,A,1,0.1,0.2,0.1,0,-0.466666666666667,0,0,0,0,0,0
3,1,305,1,0,0,1,C,3,0.2,0.2,0.1,0,-0.466666666666667,0,0,0,0,0,0
1,1,390,1,1,0,0,A,1,0.2,0.2,0.2,1,-0.466666666666667,0,0,0,0,0,0
2,1,297,1,0,1,0,B,2,0.3,0.2,0.2,0,-0.0333333333333333,0,0,0,0,0,0
2,1,398,1,0,1,0,B,2,0.3,0.3,0.2,1,-0.366666666666667,0,0,0,0,0,0
3,1,379,1,0,0,1,C,3,0.3,0.3,0.2,0,-0.0333333333333333,0,0,0,0,0,0
2,1,448,0,0,1,0,B,2,0.3,0.3,0.2,1,0.3,0,1,0,0,0,0
1,1,331,1,1,0,0,A,1,0.2,0.3,0.2,0,-0.366666666666667,0,0,0,0,0,0
2,1,409,1,0,1,0,B,2,0.3,0.3,0.2,1,-0.366666666666667,0,0,0,0,0,0
1,1,807,1,1,0,0,A,1,0.3,0.4,0.2,0,0.0666666666666667,0,0,0,0,0,0
1,1,436,1,1,0,0,A,1,0.4,0.3,0.2,1,0.0666666666666667,0,0,0,0,0,0
3,1,488,1,0,0,1,C,3,0.4,0.3,0.2,0,-0.6,0,0,0,0,0,0
2,1,594,1,0,1,0,B,2,0.4,0.3,0.2,0,-0.266666666666667,0,0,0,0,0,0
2,1,414,0,0,1,0,B,2,0.3,0.4,0.2,1,0.0666666666666667,0,0,0,0,1,0
1,1,382,1,1,0,0,A,1,0.3,0.3,0.2,1,-0.366666666666667,0,0,0,0,0,0
2,1,434,1,0,1,0,B,2,0.4,0.2,0.2,0,0.0666666666666667,0,0,0,0,0,0
2,1,468,1,0,1,0,B,2,0.4,0.3,0.1,0,0.0666666666666667,0,0,0,0,0,0
3,1,391,1,0,0,1,C,3,0.4,0.4,0.1,0,-0.6,0,0,0,0,0,0
1,1,489,1,1,0,0,A,1,0.3,0.4,0.2,0,-0.6,0,0,0,0,0,0
2,1,418,1,0,1,0,B,2,0.4,0.3,0.2,0,-0.266666666666667,0,0,0,0,0,0
3,1,378,0,0,0,1,C,3,0.3,0.4,0.2,0,0.4,0,1,0,0,0,0
3,1,375,1,0,0,1,C,3,0.2,0.4,0.2,0,0.0666666666666667,0,0,0,0,0,0
3,1,310,0,0,0,1,C,3,0.2,0.4,0.2,0,0.0666666666666667,0,0,0,0,1,0
2,1,649,1,0,1,0,B,2,0.2,0.3,0.2,1,-0.0333333333333333,0,0,0,0,0,0
1,1,546,1,1,0,0,A,1,0.2,0.4,0.2,0,0.0666666666666667,0,0,0,0,0,0
3,1,442,0,0,0,1,C,3,0.2,0.4,0.2,0,0.4,0,1,0,0,0,0
1,1,448,1,1,0,0,A,1,0.2,0.3,0.2,0,-0.366666666666667,0,0,0,0,0,0
3,1,464,1,0,0,1,C,3,0.3,0.2,0.2,0,-0.366666666666667,0,0,0,0,0,0
3,1,450,1,0,0,1,C,3,0.3,0.2,0.2,0,-0.0333333333333333,0,0,0,0,0,0
3,1,531,1,0,0,1,C,3,0.2,0.2,0.3,1,-0.0333333333333333,0,0,0,0,0,0
1,1,1188,0,1,0,0,A,1,0.2,0.1,0.4,0,0.4,0,1,1,0,0,0
3,1,507,1,0,0,1,C,3,0.2,0.1,0.4,1,0.0666666666666667,0,0,0,0,0,0
2,1,364,1,0,1,0,B,2,0.2,0.1,0.4,0,0.0666666666666667,0,0,0,0,0,0
2,1,577,1,0,1,0,B,2,0.2,0.2,0.4,0,-0.6,0,0,0,0,0,0
3,1,570,1,0,0,1,C,3,0.2,0.2,0.4,1,0.0666666666666667,0,0,0,0,0,0
3,1,1171,1,0,0,1,C,3,0.1,0.2,0.5,1,-0.166666666666667,0,0,0,0,0,0
2,1,546,1,0,1,0,B,2,0.1,0.2,0.6,0,0.266666666666667,0,0,0,0,0,0
3,1,5029,1,0,0,1,C,3,0,0.3,0.6,1,-0.0666666666666667,0,0,0,0,0,0
2,1,3217,0,0,1,0,B,2,0,0.3,0.6,0,0.266666666666667,0,1,1,0,0,0
3,1,3450,1,0,0,1,C,3,0,0.3,0.5,1,0.166666666666667,0,0,0,0,0,0
3,1,562,0,0,0,1,C,3,0,0.3,0.5,1,0.166666666666667,0,0,0,0,1,0
2,1,6984,1,0,1,0,B,2,0,0.3,0.5,0,-0.5,0,0,0,0,0,0
2,1,325,1,0,1,0,B,2,0,0.4,0.4,1,-0.266666666666667,0,0,0,0,0,0
2,1,449,1,0,1,0,B,2,0,0.4,0.4,1,0.0666666666666667,0,0,0,0,0,0
2,1,891,1,0,1,0,B,2,0,0.4,0.4,1,-0.266666666666667,0,0,0,0,0,0
3,1,460,1,0,0,1,C,3,0,0.5,0.3,0,0.166666666666667,0,0,0,0,0,0
2,1,364,1,0,1,0,B,2,0,0.5,0.3,1,-0.166666666666667,0,0,0,0,0,0
3,1,377,0,0,0,1,C,3,0,0.5,0.3,0,0.5,0,1,1,0,0,0
2,1,370,1,0,1,0,B,2,0,0.5,0.2,1,-0.5,0,0,0,0,0,0
2,1,388,1,0,1,0,B,2,0,0.6,0.2,1,0.266666666666667,0,0,0,0,0,0
3,1,486,0,0,0,1,C,3,0,0.7,0.1,0,0.7,0,1,1,0,0,0
3,1,450,1,0,0,1,C,3,0,0.7,0.1,0,0.366666666666667,0,0,0,0,0,0
2,1,395,1,0,1,0,B,2,0,0.6,0.2,1,-0.0666666666666667,0,0,0,0,0,0
3,1,402,1,0,0,1,C,3,0,0.6,0.2,0,-0.0666666666666667,0,0,0,0,0,0
2,1,488,0,0,1,0,B,2,0,0.5,0.3,1,0.166666666666667,0,1,0,1,0,0
2,1,409,1,0,1,0,B,2,0,0.4,0.3,1,0.0666666666666667,0,0,0,0,0,0
2,1,406,1,0,1,0,B,2,0,0.5,0.2,1,0.166666666666667,0,0,0,0,0,0
3,1,444,0,0,0,1,C,3,0,0.5,0.2,0,-0.166666666666667,0,1,1,0,0,0
2,1,318,1,0,1,0,B,2,0,0.5,0.2,1,0.166666666666667,0,0,0,0,0,0
1,1,428,1,1,0,0,A,1,0,0.5,0.2,0,0.166666666666667,0,0,0,0,0,0
2,1,709,0,0,1,0,B,2,0.1,0.4,0.2,1,0.4,0,1,0,1,0,0
3,1,571,1,0,0,1,C,3,0.1,0.4,0.2,0,0.0666666666666667,0,0,0,0,0,0
3,1,390,1,0,0,1,C,3,0.1,0.4,0.2,0,0.0666666666666667,0,0,0,0,0,0
2,1,422,1,0,1,0,B,2,0.1,0.3,0.3,1,-0.366666666666667,0,0,0,0,0,0
2,1,384,1,0,1,0,B,2,0.1,0.4,0.2,1,-0.6,0,0,0,0,0,0
1,1,419,1,1,0,0,A,1,0.1,0.5,0.2,0,0.166666666666667,0,0,0,0,0,0
2,1,459,1,0,1,0,B,2,0.2,0.4,0.2,1,-0.266666666666667,0,0,0,0,0,0
3,1,366,1,0,0,1,C,3,0.2,0.4,0.2,0,-0.266666666666667,0,0,0,0,0,0
2,1,362,1,0,1,0,B,2,0.2,0.4,0.3,1,0.0666666666666667,0,0,0,0,0,0
1,1,405,1,1,0,0,A,1,0.2,0.4,0.3,0,0.0666666666666667,0,0,0,0,0,0
3,1,379,1,0,0,1,C,3,0.2,0.4,0.3,0,-0.266666666666667,0,0,0,0,0,0
2,1,477,1,0,1,0,B,2,0.2,0.4,0.4,1,-0.266666666666667,0,0,0,0,0,0
3,1,378,1,0,0,1,C,3,0.2,0.5,0.3,0,-0.166666666666667,0,0,0,0,0,0
2,1,390,1,0,1,0,B,2,0.2,0.5,0.3,1,-0.166666666666667,0,0,0,0,0,0
1,1,425,1,1,0,0,A,1,0.2,0.5,0.3,0,0.166666666666667,0,0,0,0,0,0
1,1,541,1,1,0,0,A,1,0.3,0.4,0.3,0,-0.266666666666667,0,0,0,0,0,0
3,1,362,1,0,0,1,C,3,0.3,0.4,0.3,0,-0.266666666666667,0,0,0,0,0,0
1,1,533,1,1,0,0,A,1,0.3,0.3,0.4,0,-0.266666666666667,0,0,0,0,0,0
2,1,434,0,0,1,0,B,2,0.4,0.3,0.3,0,0.4,0,1,0,0,0,0
1,1,384,1,1,0,0,A,1,0.4,0.2,0.3,1,-0.266666666666667,0,0,0,0,0,0
2,1,338,1,0,1,0,B,2,0.4,0.2,0.3,0,-0.266666666666667,0,0,0,0,0,0
1,1,496,0,1,0,0,A,1,0.4,0.3,0.2,1,0.4,0,1,0,1,0,0
3,1,370,1,0,0,1,C,3,0.4,0.2,0.2,0,-0.266666666666667,0,0,0,0,0,0
1,1,680,1,1,0,0,A,1,0.4,0.2,0.2,1,0.0666666666666667,0,0,0,0,0,0
3,1,509,0,0,0,1,C,3,0.5,0.1,0.2,0,0.5,0,1,1,0,0,0
2,1,1168,1,0,1,0,B,2,0.4,0.1,0.2,0,0.0666666666666667,0,0,0,0,0,0
2,1,558,1,0,1,0,B,2,0.3,0.2,0.2,0,-0.7,0,0,0,0,0,0
1,1,2824,1,1,0,0,A,1,0.3,0.3,0.1,1,-0.0333333333333333,0,0,0,0,0,0
3,1,10894,1,0,0,1,C,3,0.3,0.3,0.1,0,-0.366666666666667,0,0,0,0,0,0
3,1,373,1,0,0,1,C,3,0.3,0.3,0.2,0,-0.366666666666667,0,0,0,0,0,0
2,1,340,1,0,1,0,B,2,0.2,0.3,0.3,1,-0.0333333333333333,0,0,0,0,0,0
3,1,375,0,0,0,1,C,3,0.2,0.3,0.3,1,-0.0333333333333333,0,1,1,0,0,0
3,1,298,1,0,0,1,C,3,0.2,0.3,0.3,1,-0.366666666666667,0,0,0,0,0,0
2,1,392,1,0,1,0,B,2,0.2,0.3,0.3,1,-0.366666666666667,0,0,0,0,0,0
3,1,333,1,0,0,1,C,3,0.1,0.4,0.3,0,0.0666666666666667,0,0,0,0,0,0
2,1,351,0,0,1,0,B,2,0.1,0.4,0.4,1,0.0666666666666667,0,1,0,1,0,0
3,1,442,1,0,0,1,C,3,0.1,0.3,0.4,1,0.0666666666666667,0,0,0,0,0,0
1,1,365,1,1,0,0,A,1,0.1,0.2,0.5,0,-0.5,0,0,0,0,0,0
3,1,325,0,0,0,1,C,3,0.1,0.2,0.5,1,0.5,0,1,0,1,0,0
3,1,348,1,0,0,1,C,3,0.1,0.2,0.4,1,0.0666666666666667,0,0,0,0,0,0
3,1,342,1,0,0,1,C,3,0.1,0.2,0.4,1,-0.266666666666667,0,0,0,0,0,0
1,1,455,1,1,0,0,A,1,0.1,0.1,0.5,0,0.166666666666667,0,0,0,0,0,0
2,1,359,1,0,1,0,B,2,0.2,0.1,0.5,0,0.166666666666667,0,0,0,0,0,0
2,1,361,1,0,1,0,B,2,0.2,0.2,0.4,0,-0.6,0,0,0,0,0,0
3,1,414,0,0,0,1,C,3,0.2,0.2,0.4,1,0.4,0,1,0,1,0,0
3,1,348,1,0,0,1,C,3,0.2,0.2,0.3,1,-0.0333333333333333,0,0,0,0,0,0
