choice_numeric_unfiltered,trial_filter,stim_RT,stim_ACC,achoice,bchoice,cchoice,stim_choice,stim_choice_numeric,prob_1,prob_2,prob_3,best_choice,above_chance_diff,prob_switch_err,spont_switch_err,erratic_spont,explore_switch,error_NOS,perseverative
1,1,2363,1,1,0,0,A,1,NaN,NaN,NaN,0,NaN,0,0,0,0,0,0
1,1,1174,0,1,0,0,A,1,1,0,0,1,1,0,0,0,0,1,0
1,1,1007,0,1,0,0,A,1,0.5,0,0,1,0.166666666666667,0,0,0,0,1,0
2,1,697,1,0,1,0,B,2,0.333333333333333,0,0,0,0,0,0,0,0,0,0
1,1,863,1,1,0,0,A,1,0.25,0.25,0,1,-0.416666666666667,0,0,0,0,0,0
3,1,509,1,0,0,1,C,3,0.4,0.2,0,0,-0.266666666666667,0,0,0,0,0,0
3,1,308,0,0,0,1,C,3,0.333333333333333,0.166666666666667,0.166666666666667,0,0.333333333333333,0,0,0,0,1,0
2,1,254,1,0,1,0,B,2,0.285714285714286,0.142857142857143,0.142857142857143,0,-0.0476190476190476,0,0,0,0,0,0
2,1,289,0,0,1,0,B,2,0.25,0.25,0.125,1,-0.0833333333333333,0,0,0,0,1,0
3,1,498,0,0,0,1,C,3,0.222222222222222,0.222222222222222,0.111111111111111,0,-0.111111111111111,1,0,0,0,0,0
2,1,1611,1,0,1,0,B,2,0.2,0.2,0.1,1,-0.133333333333333,0,0,0,0,0,0
1,1,632,1,1,0,0,A,1,0.1,0.3,0.1,0,-0.0333333333333333,0,0,0,0,0,0
3,1,1028,0,0,0,1,C,3,0.2,0.3,0.1,0,-0.0333333333333333,0,1,0,0,0,0
2,1,485,0,0,1,0,B,2,0.2,0.3,0.1,1,0.3,0,0,0,0,0,0
1,1,487,0,1,0,0,A,1,0.2,0.2,0.1,1,-0.466666666666667,1,0,0,0,0,0
3,1,473,0,0,0,1,C,3,0.1,0.2,0.1,0,-0.133333333333333,1,0,0,0,0,0
1,1,962,0,1,0,0,A,1,0.1,0.2,0,0,-0.133333333333333,0,0,0,0,0,0
3,1,412,0,0,0,1,C,3,0.1,0.2,0,0,-0.133333333333333,0,0,0,0,0,0
1,1,331,0,1,0,0,A,1,0.1,0.1,0,1,-0.566666666666667,0,0,0,0,0,0
3,1,1521,1,0,0,1,C,3,0.1,0.1,0,0,-0.233333333333333,0,0,0,0,0,0
3,1,700,1,0,0,1,C,3,0.1,0.1,0.1,1,-0.233333333333333,0,0,0,0,0,0
2,1,409,0,0,1,0,B,2,0.1,0,0.2,0,0.2,0,1,1,0,0,0
1,1,761,1,1,0,0,A,1,0,0,0.2,0,-0.133333333333333,0,0,0,0,0,0
3,1,921,0,0,0,1,C,3,0.1,0,0.2,1,0.2,0,1,0,0,0,0
1,1,450,1,1,0,0,A,1,0.1,0,0.2,0,-0.466666666666667,0,0,0,0,0,0
1,1,714,1,1,0,0,A,1,0.2,0,0.2,1,-0.133333333333333,0,0,0,0,0,0
1,1,780,1,1,0,0,A,1,0.3,0,0.2,1,-0.0333333333333333,0,0,0,0,0,0
2,1,398,0,0,1,0,B,2,0.4,0,0.2,0,0.0666666666666667,0,1,1,0,0,0
2,1,576,0,0,1,0,B,2,0.4,0,0.2,0,0.0666666666666667,0,0,0,0,1,0
2,1,590,0,0,1,0,B,2,0.4,0,0.2,0,0.0666666666666667,0,0,0,0,1,0
2,1,834,0,0,1,0,B,2,0.4,0,0.1,0,0.0666666666666667,0,0,0,0,1,0
2,1,768,0,0,1,0,B,2,0.4,0,0,0,0.4,0,0,0,0,1,0
1,1,328,0,1,0,0,A,1,0.4,0,0,1,0.0666666666666667,0,0,0,0,0,0
3,1,192,0,0,0,1,C,3,0.3,0,0,0,-0.0333333333333333,1,0,0,0,0,0
2,1,778,0,0,1,0,B,2,0.3,0,0,0,0.3,0,0,0,0,0,0
3,1,786,0,0,0,1,C,3,0.2,0,0,0,0.2,0,0,0,0,0,0
1,1,840,0,1,0,0,A,1,0.1,0,0,1,0.1,0,0,0,0,0,0
2,1,835,0,0,1,0,B,2,0,0,0,1,0,1,0,0,0,0,0
1,1,309,0,1,0,0,A,1,0,0,0,1,-0.333333333333333,1,0,0,0,0,0
2,1,570,0,0,1,0,B,2,0,0,0,1,0,1,0,0,0,0,0
2,1,891,0,0,1,0,B,2,0,0,0,1,0,0,0,0,0,1,0
2,1,207,0,0,1,0,B,2,0,0,0,1,-0.333333333333333,0,0,0,0,1,1
2,1,688,0,0,1,0,B,2,0,0,0,1,0,0,0,0,0,1,1
1,1,685,0,1,0,0,A,1,0,0,0,1,0,1,0,0,0,0,0
2,1,698,1,0,1,0,B,2,0,0,0,1,-0.666666666666667,0,0,0,0,0,0
2,1,504,1,0,1,0,B,2,0,0.1,0,1,-0.233333333333333,0,0,0,0,0,0
1,1,1063,0,1,0,0,A,1,0,0.2,0,0,0.2,0,1,1,0,0,0
1,1,461,0,1,0,0,A,1,0,0.2,0,0,-0.133333333333333,0,0,0,0,1,0
2,1,147,1,0,1,0,B,2,0,0.2,0,1,-0.133333333333333,0,0,0,0,0,0
1,1,474,0,1,0,0,A,1,0,0.3,0,0,0.3,0,1,1,0,0,0
3,1,279,0,0,0,1,C,3,0,0.3,0,0,-0.0333333333333333,0,0,0,0,0,0
2,1,552,0,0,1,0,B,2,0,0.3,0,1,0.3,0,0,0,0,0,0
3,1,464,0,0,0,1,C,3,0,0.3,0,0,0.3,1,0,0,0,0,0
2,1,1654,0,0,1,0,B,2,0,0.3,0,1,0.3,0,0,0,0,0,0
2,1,856,0,0,1,0,B,2,0,0.3,0,1,0.3,0,0,0,0,1,0
1,1,583,1,1,0,0,A,1,0,0.2,0,0,-0.133333333333333,0,0,0,0,0,0
1,1,517,0,1,0,0,A,1,0.1,0.1,0,1,0.1,0,0,0,0,1,0
1,1,496,0,1,0,0,A,1,0.1,0.1,0,1,0.1,0,0,0,0,1,0
2,1,652,0,0,1,0,B,2,0.1,0.1,0,1,0.1,1,0,0,0,0,0
3,1,760,0,0,0,1,C,3,0.1,0,0,0,0.1,1,0,0,0,0,0
3,1,1178,1,0,0,1,C,3,0.1,0,0,0,-0.566666666666667,0,0,0,0,0,0
3,1,523,1,0,0,1,C,3,0.1,0,0.1,1,-0.566666666666667,0,0,0,0,0,0
3,1,521,1,0,0,1,C,3,0.1,0,0.2,1,-0.133333333333333,0,0,0,0,0,0
3,1,683,1,0,0,1,C,3,0.1,0,0.3,1,-0.0333333333333333,0,0,0,0,0,0
2,1,552,0,0,1,0,B,2,0.1,0,0.4,0,0.0666666666666667,0,1,1,0,0,0
2,1,481,0,0,1,0,B,2,0.1,0,0.4,0,0.0666666666666667,0,0,0,0,1,0
3,1,288,0,0,0,1,C,3,0,0,0.4,1,0.0666666666666667,0,0,0,0,0,0
1,1,822,0,1,0,0,A,1,0,0,0.4,0,0.0666666666666667,1,0,0,0,0,0
2,1,1073,1,0,1,0,B,2,0,0,0.4,0,0.0666666666666667,0,0,0,0,0,0
1,1,668,1,1,0,0,A,1,0,0.1,0.4,0,0.0666666666666667,0,0,0,0,0,0
1,1,600,1,1,0,0,A,1,0.1,0.1,0.4,0,0.0666666666666667,0,0,0,0,0,0
2,1,1176,0,0,1,0,B,2,0.2,0.1,0.3,0,0.3,0,1,0,0,0,0
1,1,568,0,1,0,0,A,1,0.2,0.1,0.2,1,-0.133333333333333,0,0,0,0,0,0
2,1,975,1,0,1,0,B,2,0.2,0.1,0.1,0,-0.133333333333333,0,0,0,0,0,0
2,1,716,1,0,1,0,B,2,0.2,0.2,0,1,-0.133333333333333,0,0,0,0,0,0
2,1,701,1,0,1,0,B,2,0.2,0.3,0,1,-0.0333333333333333,0,0,0,0,0,0
1,1,574,1,1,0,0,A,1,0.2,0.4,0,0,0.0666666666666667,0,0,0,0,0,0
2,1,1139,1,0,1,0,B,2,0.3,0.4,0,1,0.0666666666666667,0,0,0,0,0,0
1,1,1307,0,1,0,0,A,1,0.3,0.5,0,0,0.166666666666667,0,1,1,0,0,0
2,1,681,1,0,1,0,B,2,0.3,0.4,0,1,0.0666666666666667,0,0,0,0,0,0
2,1,748,0,0,1,0,B,2,0.2,0.5,0,1,0.5,0,0,0,0,1,0
1,1,577,1,1,0,0,A,1,0.1,0.5,0,0,0.166666666666667,0,0,0,0,0,0
2,1,755,0,0,1,0,B,2,0.2,0.5,0,1,0.5,0,1,0,1,0,0
3,1,793,0,0,0,1,C,3,0.2,0.5,0,0,0.5,1,0,0,0,0,0
3,1,626,1,0,0,1,C,3,0.2,0.4,0,0,-0.266666666666667,0,0,0,0,0,0
1,1,549,1,1,0,0,A,1,0.2,0.3,0.1,0,-0.0333333333333333,0,0,0,0,0,0
3,1,612,1,0,0,1,C,3,0.3,0.2,0.1,0,-0.0333333333333333,0,0,0,0,0,0
3,1,609,1,0,0,1,C,3,0.2,0.2,0.2,1,-0.133333333333333,0,0,0,0,0,0
2,1,504,1,0,1,0,B,2,0.2,0.1,0.3,0,-0.0333333333333333,0,0,0,0,0,0
3,1,680,1,0,0,1,C,3,0.2,0.2,0.3,1,-0.366666666666667,0,0,0,0,0,0
1,1,545,0,1,0,0,A,1,0.2,0.1,0.4,0,0.4,0,1,1,0,0,0
1,1,468,0,1,0,0,A,1,0.2,0.1,0.4,0,0.4,0,0,0,0,1,0
3,1,684,0,0,0,1,C,3,0.1,0.1,0.4,1,0.0666666666666667,0,0,0,0,0,0
3,1,724,0,0,0,1,C,3,0.1,0.1,0.4,1,0.4,0,0,0,0,1,0
1,1,787,0,1,0,0,A,1,0.1,0.1,0.4,0,0.4,1,0,0,0,0,0
1,1,395,1,1,0,0,A,1,0.1,0.1,0.3,0,-0.0333333333333333,0,0,0,0,0,0
2,1,608,1,0,1,0,B,2,0.1,0.1,0.3,0,-0.0333333333333333,0,0,0,0,0,0
2,1,599,1,0,1,0,B,2,0.1,0.2,0.2,1,-0.133333333333333,0,0,0,0,0,0
3,1,1802,1,0,0,1,C,3,0.1,0.3,0.1,0,-0.0333333333333333,0,0,0,0,0,0
2,1,566,0,0,1,0,B,2,0.1,0.2,0.2,1,0.2,0,1,0,0,0,0
1,1,421,1,1,0,0,A,1,0.1,0.2,0.1,0,-0.133333333333333,0,0,0,0,0,0
1,1,332,0,1,0,0,A,1,0.2,0.2,0.1,1,-0.133333333333333,0,0,0,0,1,0
2,1,1046,0,0,1,0,B,2,0.2,0.2,0.1,1,0.2,1,0,0,0,0,0
3,1,1542,0,0,0,1,C,3,0.2,0.2,0.1,0,0.2,1,0,0,0,0,0
1,1,551,0,1,0,0,A,1,0.2,0.2,0.1,1,0.2,0,0,0,0,0,0
3,1,630,0,0,0,1,C,3,0.2,0.2,0.1,0,-0.133333333333333,1,0,0,0,0,0
1,1,267,0,1,0,0,A,1,0.1,0.2,0.1,0,0.2,0,0,0,0,0,0
1,1,489,0,1,0,0,A,1,0.1,0.1,0.1,1,-0.233333333333333,0,0,0,0,1,0
1,1,344,0,1,0,0,A,1,0.1,0,0.1,1,0.1,0,0,0,0,1,0
2,1,563,0,0,1,0,B,2,0.1,0,0,0,0.1,1,0,0,0,0,0
1,1,627,0,1,0,0,A,1,0.1,0,0,1,0.1,0,0,0,0,0,0
3,1,605,0,0,0,1,C,3,0,0,0,1,0,1,0,0,0,0,0
1,1,500,1,1,0,0,A,1,0,0,0,1,-0.333333333333333,0,0,0,0,0,0
2,1,685,0,0,1,0,B,2,0.1,0,0,0,-0.233333333333333,0,1,1,0,0,0
1,1,654,0,1,0,0,A,1,0.1,0,0,1,0.1,0,0,0,0,0,0
2,1,435,0,0,1,0,B,2,0.1,0,0,0,0.1,1,0,0,0,0,0
1,1,1121,0,1,0,0,A,1,0.1,0,0,1,0.1,0,0,0,0,0,0
1,1,689,0,1,0,0,A,1,0.1,0,0,1,0.1,0,0,0,0,1,0
2,1,865,0,0,1,0,B,2,0.1,0,0,0,0.1,1,0,0,0,0,0
3,1,653,0,0,0,1,C,3,0.1,0,0,0,-0.233333333333333,0,0,0,0,0,0
3,1,857,1,0,0,1,C,3,0.1,0,0,0,-0.233333333333333,0,0,0,0,0,0
2,1,741,0,0,1,0,B,2,0.1,0,0.1,0,-0.233333333333333,0,1,0,0,0,0
3,1,750,1,0,0,1,C,3,0.1,0,0.1,1,-0.233333333333333,0,0,0,0,0,0
2,1,763,0,0,1,0,B,2,0,0,0.2,0,-0.133333333333333,0,1,1,0,0,0
1,1,531,1,1,0,0,A,1,0,0,0.2,0,-0.133333333333333,0,0,0,0,0,0
3,1,508,1,0,0,1,C,3,0.1,0,0.2,1,-0.466666666666667,0,0,0,0,0,0
1,1,393,1,1,0,0,A,1,0.1,0,0.3,0,-0.0333333333333333,0,0,0,0,0,0
3,1,700,1,0,0,1,C,3,0.2,0,0.3,1,-0.0333333333333333,0,0,0,0,0,0
2,1,659,1,0,1,0,B,2,0.2,0,0.4,0,-0.266666666666667,0,0,0,0,0,0
1,1,543,1,1,0,0,A,1,0.2,0.1,0.4,0,-0.266666666666667,0,0,0,0,0,0
1,1,437,0,1,0,0,A,1,0.3,0.1,0.4,0,0.4,0,0,0,0,1,0
2,1,652,1,0,1,0,B,2,0.3,0.1,0.3,0,-0.366666666666667,0,0,0,0,0,0
3,1,941,0,0,0,1,C,3,0.3,0.2,0.3,1,0.3,0,1,0,0,0,0
3,1,1022,1,0,0,1,C,3,0.3,0.2,0.2,0,-0.0333333333333333,0,0,0,0,0,0
1,1,575,1,1,0,0,A,1,0.3,0.2,0.3,1,-0.0333333333333333,0,0,0,0,0,0
3,1,611,1,0,0,1,C,3,0.3,0.2,0.3,1,-0.0333333333333333,0,0,0,0,0,0
3,1,744,1,0,0,1,C,3,0.3,0.2,0.3,1,-0.0333333333333333,0,0,0,0,0,0
3,1,483,1,0,0,1,C,3,0.2,0.2,0.4,1,0.0666666666666667,0,0,0,0,0,0
3,1,877,1,0,0,1,C,3,0.2,0.2,0.4,1,0.0666666666666667,0,0,0,0,0,0
2,1,685,1,0,1,0,B,2,0.2,0.1,0.5,0,0.166666666666667,0,0,0,0,0,0
3,1,566,1,0,0,1,C,3,0.1,0.2,0.5,1,0.166666666666667,0,0,0,0,0,0
1,1,423,1,1,0,0,A,1,0.1,0.2,0.6,0,0.266666666666667,0,0,0,0,0,0
2,1,566,0,0,1,0,B,2,0.2,0.1,0.6,0,0.6,0,1,0,0,0,0
1,1,388,1,1,0,0,A,1,0.2,0.1,0.6,0,0.266666666666667,0,0,0,0,0,0
2,1,539,1,0,1,0,B,2,0.3,0.1,0.5,0,0.166666666666667,0,0,0,0,0,0
1,1,494,1,1,0,0,A,1,0.2,0.2,0.5,0,0.166666666666667,0,0,0,0,0,0
2,1,701,1,0,1,0,B,2,0.3,0.2,0.4,0,0.0666666666666667,0,0,0,0,0,0
3,1,903,1,0,0,1,C,3,0.3,0.3,0.3,1,-0.0333333333333333,0,0,0,0,0,0
1,1,459,1,1,0,0,A,1,0.3,0.3,0.3,1,-0.0333333333333333,0,0,0,0,0,0
1,1,492,1,1,0,0,A,1,0.4,0.3,0.2,1,0.0666666666666667,0,0,0,0,0,0
3,1,942,0,0,0,1,C,3,0.5,0.2,0.2,0,-0.166666666666667,0,1,1,0,0,0
1,1,669,0,1,0,0,A,1,0.5,0.2,0.1,1,-0.166666666666667,0,0,0,0,0,0
2,1,846,0,0,1,0,B,2,0.4,0.2,0.1,0,0.4,1,0,0,0,0,0
2,1,809,0,0,1,0,B,2,0.4,0.2,0.1,0,-0.266666666666667,0,0,0,0,1,0
3,1,789,0,0,0,1,C,3,0.3,0.2,0.1,0,-0.366666666666667,0,0,0,0,0,0
2,1,685,0,0,1,0,B,2,0.3,0.1,0.1,0,0.3,0,0,0,0,0,0
1,1,433,0,1,0,0,A,1,0.2,0.1,0.1,1,0.2,0,0,0,0,0,0
2,1,622,0,0,1,0,B,2,0.2,0,0.1,0,-0.466666666666667,1,0,0,0,0,0
3,1,1132,0,0,0,1,C,3,0.2,0,0,0,0.2,0,0,0,0,0,0
2,1,562,0,0,1,0,B,2,0.1,0,0,0,-0.566666666666667,0,0,0,0,0,0
1,1,500,0,1,0,0,A,1,0,0,0,1,-0.666666666666667,0,0,0,0,0,0
3,1,762,0,0,0,1,C,3,0,0,0,1,0,1,0,0,0,0,0
1,1,273,0,1,0,0,A,1,0,0,0,1,-0.666666666666667,1,0,0,0,0,0
3,1,600,1,0,0,1,C,3,0,0,0,1,-0.333333333333333,0,0,0,0,0,0
3,1,526,0,0,0,1,C,3,0,0,0.1,1,0.1,0,0,0,0,1,0
1,1,622,0,1,0,0,A,1,0,0,0.1,0,-0.566666666666667,1,0,0,0,0,0
2,1,708,1,0,1,0,B,2,0,0,0.1,0,-0.9,0,0,0,0,0,0
3,1,566,0,0,0,1,C,3,0,0.1,0.1,1,0.1,0,1,0,0,0,0
2,1,547,1,0,1,0,B,2,0,0.1,0.1,1,-0.9,0,0,0,0,0,0
3,1,523,0,0,0,1,C,3,0,0.2,0.1,0,0.2,0,1,1,0,0,0
1,1,955,0,1,0,0,A,1,0,0.2,0.1,0,-0.466666666666667,0,0,0,0,0,0
1,1,605,0,1,0,0,A,1,0,0.2,0.1,0,0.2,0,0,0,0,1,0
1,1,354,0,1,0,0,A,1,0,0.2,0.1,0,0.2,0,0,0,0,1,0
1,1,668,0,1,0,0,A,1,0,0.2,0.1,0,-0.466666666666667,0,0,0,0,1,0
2,1,641,0,0,1,0,B,2,0,0.2,0,1,-0.466666666666667,0,0,0,0,0,0
1,1,528,0,1,0,0,A,1,0,0.2,0,0,-0.466666666666667,1,0,0,0,0,0
3,1,795,0,0,0,1,C,3,0,0.2,0,0,-0.466666666666667,0,0,0,0,0,0
2,1,435,1,0,1,0,B,2,0,0.1,0,1,-0.566666666666667,0,0,0,0,0,0
3,1,463,1,0,0,1,C,3,0,0.2,0,0,-0.8,0,0,0,0,0,0
3,1,331,0,0,0,1,C,3,0,0.1,0.1,1,0.1,0,0,0,0,1,0
3,1,450,1,0,0,1,C,3,0,0.1,0.1,1,-0.566666666666667,0,0,0,0,0,0
3,1,356,0,0,0,1,C,3,0,0.1,0.2,1,0.2,0,0,0,0,1,1
1,1,970,1,1,0,0,A,1,0,0.1,0.2,0,-0.133333333333333,0,0,0,0,0,0
3,1,641,0,0,0,1,C,3,0.1,0.1,0.2,1,-0.133333333333333,0,1,0,0,0,0
2,1,707,1,0,1,0,B,2,0.1,0.1,0.2,0,-0.133333333333333,0,0,0,0,0,0
1,1,502,1,1,0,0,A,1,0.1,0.2,0.2,0,-0.133333333333333,0,0,0,0,0,0
2,1,564,1,0,1,0,B,2,0.2,0.2,0.2,1,-0.133333333333333,0,0,0,0,0,0
3,1,481,1,0,0,1,C,3,0.2,0.3,0.2,0,-0.0333333333333333,0,0,0,0,0,0
3,1,744,1,0,0,1,C,3,0.2,0.2,0.3,1,-0.366666666666667,0,0,0,0,0,0
3,1,480,1,0,0,1,C,3,0.2,0.2,0.3,1,-0.0333333333333333,0,0,0,0,0,0
1,1,478,1,1,0,0,A,1,0.2,0.2,0.4,0,-0.6,0,0,0,0,0,0
2,1,628,0,0,1,0,B,2,0.3,0.2,0.3,0,0.3,0,1,0,0,0,0
3,1,452,0,0,0,1,C,3,0.3,0.2,0.3,1,-0.0333333333333333,0,0,0,0,0,0
2,1,746,1,0,1,0,B,2,0.2,0.2,0.3,0,-0.366666666666667,0,0,0,0,0,0
1,1,679,1,1,0,0,A,1,0.2,0.3,0.3,0,-0.366666666666667,0,0,0,0,0,0
3,1,505,1,0,0,1,C,3,0.3,0.2,0.3,1,-0.366666666666667,0,0,0,0,0,0
1,1,1386,0,1,0,0,A,1,0.2,0.2,0.4,0,-0.266666666666667,0,1,1,0,0,0
3,1,443,1,0,0,1,C,3,0.2,0.1,0.4,1,0.0666666666666667,0,0,0,0,0,0
2,1,760,1,0,1,0,B,2,0.2,0.1,0.4,0,-0.266666666666667,0,0,0,0,0,0
3,1,634,1,0,0,1,C,3,0.2,0.2,0.3,1,-0.0333333333333333,0,0,0,0,0,0
2,1,749,0,0,1,0,B,2,0.2,0.2,0.3,0,0.3,0,1,1,0,0,0
1,1,788,1,1,0,0,A,1,0.1,0.2,0.3,0,-0.366666666666667,0,0,0,0,0,0
2,1,1084,1,0,1,0,B,2,0.2,0.2,0.3,0,-0.366666666666667,0,0,0,0,0,0
1,1,603,1,1,0,0,A,1,0.2,0.3,0.3,0,-0.0333333333333333,0,0,0,0,0,0
1,1,543,1,1,0,0,A,1,0.3,0.2,0.3,1,-0.0333333333333333,0,0,0,0,0,0
3,1,367,1,0,0,1,C,3,0.3,0.2,0.3,1,-0.7,0,0,0,0,0,0
2,1,652,1,0,1,0,B,2,0.3,0.2,0.3,0,-0.366666666666667,0,0,0,0,0,0
2,1,502,0,0,1,0,B,2,0.3,0.3,0.3,1,-0.0333333333333333,0,0,0,0,1,0
1,1,556,1,1,0,0,A,1,0.3,0.3,0.2,1,-0.366666666666667,0,0,0,0,0,0
2,1,447,1,0,1,0,B,2,0.4,0.2,0.2,0,0.0666666666666667,0,0,0,0,0,0
2,1,546,1,0,1,0,B,2,0.4,0.3,0.1,0,0.0666666666666667,0,0,0,0,0,0
3,1,1524,1,0,0,1,C,3,0.4,0.4,0.1,0,-0.6,0,0,0,0,0,0
1,1,675,1,1,0,0,A,1,0.3,0.4,0.2,0,-0.6,0,0,0,0,0,0
2,1,1117,1,0,1,0,B,2,0.4,0.3,0.2,0,-0.266666666666667,0,0,0,0,0,0
3,1,719,0,0,0,1,C,3,0.3,0.4,0.2,0,0.4,0,1,0,0,0,0
3,1,2628,1,0,0,1,C,3,0.2,0.4,0.2,0,0.0666666666666667,0,0,0,0,0,0
3,1,554,0,0,0,1,C,3,0.2,0.4,0.2,0,0.0666666666666667,0,0,0,0,1,0
2,1,464,1,0,1,0,B,2,0.2,0.3,0.2,1,-0.0333333333333333,0,0,0,0,0,0
1,1,525,1,1,0,0,A,1,0.2,0.4,0.2,0,0.0666666666666667,0,0,0,0,0,0
3,1,387,0,0,0,1,C,3,0.2,0.4,0.2,0,0.4,0,1,0,0,0,0
1,1,728,1,1,0,0,A,1,0.2,0.3,0.2,0,-0.366666666666667,0,0,0,0,0,0
3,1,747,1,0,0,1,C,3,0.3,0.2,0.2,0,-0.366666666666667,0,0,0,0,0,0
3,1,494,1,0,0,1,C,3,0.3,0.2,0.2,0,-0.0333333333333333,0,0,0,0,0,0
3,1,366,1,0,0,1,C,3,0.2,0.2,0.3,1,-0.0333333333333333,0,0,0,0,0,0
1,1,582,0,1,0,0,A,1,0.2,0.1,0.4,0,0.4,0,1,1,0,0,0
3,1,1244,1,0,0,1,C,3,0.2,0.1,0.4,1,0.0666666666666667,0,0,0,0,0,0
2,1,607,1,0,1,0,B,2,0.2,0.1,0.4,0,0.0666666666666667,0,0,0,0,0,0
2,1,594,1,0,1,0,B,2,0.2,0.2,0.4,0,-0.6,0,0,0,0,0,0
3,1,633,1,0,0,1,C,3,0.2,0.2,0.4,1,0.0666666666666667,0,0,0,0,0,0
3,1,561,1,0,0,1,C,3,0.1,0.2,0.5,1,-0.166666666666667,0,0,0,0,0,0
2,1,700,1,0,1,0,B,2,0.1,0.2,0.6,0,0.266666666666667,0,0,0,0,0,0
3,1,444,1,0,0,1,C,3,0,0.3,0.6,1,-0.0666666666666667,0,0,0,0,0,0
2,1,607,0,0,1,0,B,2,0,0.3,0.6,0,0.266666666666667,0,1,1,0,0,0
3,1,589,1,0,0,1,C,3,0,0.3,0.5,1,0.166666666666667,0,0,0,0,0,0
3,1,1211,0,0,0,1,C,3,0,0.3,0.5,1,0.166666666666667,0,0,0,0,1,0
2,1,493,1,0,1,0,B,2,0,0.3,0.5,0,-0.5,0,0,0,0,0,0
2,1,554,1,0,1,0,B,2,0,0.4,0.4,1,-0.266666666666667,0,0,0,0,0,0
2,1,429,1,0,1,0,B,2,0,0.4,0.4,1,0.0666666666666667,0,0,0,0,0,0
2,1,563,1,0,1,0,B,2,0,0.4,0.4,1,-0.266666666666667,0,0,0,0,0,0
3,1,507,1,0,0,1,C,3,0,0.5,0.3,0,0.166666666666667,0,0,0,0,0,0
2,1,457,1,0,1,0,B,2,0,0.5,0.3,1,-0.166666666666667,0,0,0,0,0,0
3,1,527,0,0,0,1,C,3,0,0.5,0.3,0,0.5,0,1,1,0,0,0
2,1,516,1,0,1,0,B,2,0,0.5,0.2,1,-0.5,0,0,0,0,0,0
2,1,480,1,0,1,0,B,2,0,0.6,0.2,1,0.266666666666667,0,0,0,0,0,0
3,1,409,0,0,0,1,C,3,0,0.7,0.1,0,0.7,0,1,1,0,0,0
3,1,256,1,0,0,1,C,3,0,0.7,0.1,0,0.366666666666667,0,0,0,0,0,0
2,1,601,1,0,1,0,B,2,0,0.6,0.2,1,-0.0666666666666667,0,0,0,0,0,0
3,1,410,1,0,0,1,C,3,0,0.6,0.2,0,-0.0666666666666667,0,0,0,0,0,0
2,1,506,0,0,1,0,B,2,0,0.5,0.3,1,0.166666666666667,0,1,0,1,0,0
2,1,416,1,0,1,0,B,2,0,0.4,0.3,1,0.0666666666666667,0,0,0,0,0,0
2,1,597,1,0,1,0,B,2,0,0.5,0.2,1,0.166666666666667,0,0,0,0,0,0
3,1,585,0,0,0,1,C,3,0,0.5,0.2,0,-0.166666666666667,0,1,1,0,0,0
2,1,498,1,0,1,0,B,2,0,0.5,0.2,1,0.166666666666667,0,0,0,0,0,0
1,1,615,1,1,0,0,A,1,0,0.5,0.2,0,0.166666666666667,0,0,0,0,0,0
2,1,400,0,0,1,0,B,2,0.1,0.4,0.2,1,0.4,0,1,0,1,0,0
3,1,872,0,0,0,1,C,3,0.1,0.4,0.2,0,0.0666666666666667,1,0,0,0,0,0
1,1,443,1,1,0,0,A,1,0.1,0.4,0.1,0,0.0666666666666667,0,0,0,0,0,0
2,1,634,1,0,1,0,B,2,0.2,0.3,0.1,1,-0.366666666666667,0,0,0,0,0,0
2,1,831,1,0,1,0,B,2,0.2,0.4,0,1,-0.6,0,0,0,0,0,0
1,1,924,0,1,0,0,A,1,0.2,0.5,0,0,0.166666666666667,0,1,1,0,0,0
3,1,726,1,0,0,1,C,3,0.2,0.4,0,0,-0.266666666666667,0,0,0,0,0,0
3,1,471,1,0,0,1,C,3,0.2,0.3,0.1,0,-0.366666666666667,0,0,0,0,0,0
2,1,638,1,0,1,0,B,2,0.2,0.3,0.2,1,-0.0333333333333333,0,0,0,0,0,0
1,1,618,1,1,0,0,A,1,0.2,0.3,0.2,0,-0.0333333333333333,0,0,0,0,0,0
3,1,477,1,0,0,1,C,3,0.2,0.3,0.2,0,-0.366666666666667,0,0,0,0,0,0
2,1,647,1,0,1,0,B,2,0.2,0.3,0.3,1,-0.366666666666667,0,0,0,0,0,0
3,1,607,1,0,0,1,C,3,0.2,0.4,0.3,0,-0.266666666666667,0,0,0,0,0,0
2,1,639,1,0,1,0,B,2,0.1,0.4,0.4,1,-0.266666666666667,0,0,0,0,0,0
1,1,604,1,1,0,0,A,1,0.1,0.4,0.4,0,0.0666666666666667,0,0,0,0,0,0
1,1,807,1,1,0,0,A,1,0.2,0.3,0.4,0,-0.266666666666667,0,0,0,0,0,0
3,1,1186,1,0,0,1,C,3,0.3,0.3,0.4,1,-0.266666666666667,0,0,0,0,0,0
1,1,438,1,1,0,0,A,1,0.3,0.3,0.4,0,-0.266666666666667,0,0,0,0,0,0
2,1,1037,0,0,1,0,B,2,0.4,0.3,0.3,0,0.4,0,1,0,0,0,0
1,1,518,1,1,0,0,A,1,0.4,0.2,0.3,1,-0.266666666666667,0,0,0,0,0,0
2,1,481,1,0,1,0,B,2,0.4,0.2,0.3,0,-0.266666666666667,0,0,0,0,0,0
1,1,498,0,1,0,0,A,1,0.4,0.3,0.2,1,0.4,0,1,0,1,0,0
3,1,611,1,0,0,1,C,3,0.4,0.2,0.2,0,-0.266666666666667,0,0,0,0,0,0
1,1,548,1,1,0,0,A,1,0.4,0.2,0.2,1,0.0666666666666667,0,0,0,0,0,0
3,1,1819,0,0,0,1,C,3,0.5,0.1,0.2,0,0.5,0,1,1,0,0,0
2,1,562,1,0,1,0,B,2,0.4,0.1,0.2,0,0.0666666666666667,0,0,0,0,0,0
2,1,1282,1,0,1,0,B,2,0.3,0.2,0.2,0,-0.7,0,0,0,0,0,0
1,1,580,1,1,0,0,A,1,0.3,0.3,0.1,1,-0.0333333333333333,0,0,0,0,0,0
3,1,413,1,0,0,1,C,3,0.3,0.3,0.1,0,-0.366666666666667,0,0,0,0,0,0
3,1,346,1,0,0,1,C,3,0.3,0.3,0.2,0,-0.366666666666667,0,0,0,0,0,0
2,1,477,1,0,1,0,B,2,0.2,0.3,0.3,1,-0.0333333333333333,0,0,0,0,0,0
3,1,589,0,0,0,1,C,3,0.2,0.3,0.3,1,-0.0333333333333333,0,1,1,0,0,0
3,1,1203,1,0,0,1,C,3,0.2,0.3,0.3,1,-0.366666666666667,0,0,0,0,0,0
2,1,669,1,0,1,0,B,2,0.2,0.3,0.3,1,-0.366666666666667,0,0,0,0,0,0
3,1,417,1,0,0,1,C,3,0.1,0.4,0.3,0,0.0666666666666667,0,0,0,0,0,0
2,1,432,0,0,1,0,B,2,0.1,0.4,0.4,1,0.0666666666666667,0,1,0,1,0,0
3,1,406,1,0,0,1,C,3,0.1,0.3,0.4,1,0.0666666666666667,0,0,0,0,0,0
1,1,519,1,1,0,0,A,1,0.1,0.2,0.5,0,-0.5,0,0,0,0,0,0
3,1,420,0,0,0,1,C,3,0.1,0.2,0.5,1,0.5,0,1,0,1,0,0
3,1,445,1,0,0,1,C,3,0.1,0.2,0.4,1,0.0666666666666667,0,0,0,0,0,0
3,1,353,1,0,0,1,C,3,0.1,0.2,0.4,1,-0.266666666666667,0,0,0,0,0,0
1,1,610,1,1,0,0,A,1,0.1,0.1,0.5,0,0.166666666666667,0,0,0,0,0,0
2,1,570,1,0,1,0,B,2,0.2,0.1,0.5,0,0.166666666666667,0,0,0,0,0,0
2,1,874,1,0,1,0,B,2,0.2,0.2,0.4,0,-0.6,0,0,0,0,0,0
3,1,1137,0,0,0,1,C,3,0.2,0.2,0.4,1,0.4,0,1,0,1,0,0
3,1,423,1,0,0,1,C,3,0.2,0.2,0.3,1,-0.0333333333333333,0,0,0,0,0,0
