choice_numeric_unfiltered,trial_filter,stim_RT,stim_ACC,achoice,bchoice,cchoice,stim_choice,stim_choice_numeric,prob_1,prob_2,prob_3,best_choice,above_chance_diff,prob_switch_err,spont_switch_err,erratic_spont,explore_switch,error_NOS,perseverative
2,1,1966,0,0,1,0,B,2,NaN,NaN,NaN,0,NaN,0,0,0,0,0,0
3,1,4432,0,0,0,1,C,3,0,0,0,1,0,0,0,0,0,0,0
3,1,3073,1,0,0,1,C,3,0,0,0,1,-0.333333333333333,0,0,0,0,0,0
1,1,991,1,1,0,0,A,1,0,0,0.333333333333333,0,0,0,0,0,0,0,0
1,1,754,1,1,0,0,A,1,0.25,0,0.25,1,-0.416666666666667,0,0,0,0,0,0
2,1,689,1,0,1,0,B,2,0.4,0,0.2,0,-0.266666666666667,0,0,0,0,0,0
3,1,645,0,0,0,1,C,3,0.333333333333333,0.166666666666667,0.166666666666667,0,0.333333333333333,0,1,0,0,0,0
2,1,1122,1,0,1,0,B,2,0.285714285714286,0.142857142857143,0.142857142857143,0,-0.0476190476190476,0,0,0,0,0,0
2,1,569,1,0,1,0,B,2,0.25,0.25,0.125,1,-0.0833333333333333,0,0,0,0,0,0
1,1,780,1,1,0,0,A,1,0.222222222222222,0.333333333333333,0.111111111111111,0,0,0,0,0,0,0,0
1,1,619,1,1,0,0,A,1,0.3,0.3,0.1,1,-0.0333333333333333,0,0,0,0,0,0
1,1,537,1,1,0,0,A,1,0.4,0.3,0.1,1,0.0666666666666667,0,0,0,0,0,0
3,1,698,0,0,0,1,C,3,0.5,0.3,0.1,0,0.166666666666667,0,1,1,0,0,0
2,1,578,0,0,1,0,B,2,0.5,0.3,0,0,0.5,0,0,0,0,0,0
2,1,807,1,0,1,0,B,2,0.4,0.3,0,0,-0.266666666666667,0,0,0,0,0,0
2,1,592,1,0,1,0,B,2,0.3,0.4,0,1,0.0666666666666667,0,0,0,0,0,0
3,1,479,1,0,0,1,C,3,0.3,0.4,0,0,0.0666666666666667,0,0,0,0,0,0
1,1,365,1,1,0,0,A,1,0.3,0.4,0.1,0,0.0666666666666667,0,0,0,0,0,0
2,1,390,1,0,1,0,B,2,0.4,0.3,0.1,0,-0.266666666666667,0,0,0,0,0,0
1,1,385,1,1,0,0,A,1,0.4,0.3,0.1,1,0.0666666666666667,0,0,0,0,0,0
3,1,500,1,0,0,1,C,3,0.4,0.3,0.1,0,0.0666666666666667,0,0,0,0,0,0
2,1,396,0,0,1,0,B,2,0.3,0.3,0.2,1,0.3,0,1,0,0,0,0
3,1,501,1,0,0,1,C,3,0.2,0.3,0.2,0,-0.0333333333333333,0,0,0,0,0,0
3,1,366,0,0,0,1,C,3,0.2,0.3,0.3,1,0.3,0,0,0,0,1,0
1,1,390,1,1,0,0,A,1,0.2,0.3,0.3,0,-0.366666666666667,0,0,0,0,0,0
1,1,356,1,1,0,0,A,1,0.3,0.2,0.3,1,-0.0333333333333333,0,0,0,0,0,0
1,1,390,1,1,0,0,A,1,0.4,0.1,0.3,1,0.0666666666666667,0,0,0,0,0,0
2,1,407,1,0,1,0,B,2,0.5,0.1,0.2,0,0.166666666666667,0,0,0,0,0,0
1,1,414,1,1,0,0,A,1,0.4,0.2,0.2,1,0.0666666666666667,0,0,0,0,0,0
3,1,357,1,0,0,1,C,3,0.5,0.1,0.2,0,0.166666666666667,0,0,0,0,0,0
3,1,474,1,0,0,1,C,3,0.4,0.1,0.3,0,0.0666666666666667,0,0,0,0,0,0
1,1,373,0,1,0,0,A,1,0.4,0.1,0.3,1,0.4,0,1,0,1,0,0
2,1,627,0,0,1,0,B,2,0.4,0.1,0.3,0,0.0666666666666667,1,0,0,0,0,0
3,1,542,0,0,0,1,C,3,0.4,0.1,0.2,0,0.0666666666666667,0,0,0,0,0,0
3,1,860,0,0,0,1,C,3,0.4,0.1,0.2,0,0.4,0,0,0,0,1,0
3,1,538,0,0,0,1,C,3,0.3,0.1,0.2,0,0.3,0,0,0,0,1,0
1,1,893,0,1,0,0,A,1,0.2,0.1,0.2,1,0.2,0,0,0,0,0,0
3,1,879,0,0,0,1,C,3,0.1,0.1,0.2,1,0.2,1,0,0,0,0,0
1,1,1531,0,1,0,0,A,1,0.1,0,0.2,0,-0.133333333333333,1,0,0,0,0,0
2,1,1198,0,0,1,0,B,2,0,0,0.2,0,0.2,0,0,0,0,0,0
1,1,926,0,1,0,0,A,1,0,0,0.1,0,0.1,0,0,0,0,0,0
1,1,1087,1,1,0,0,A,1,0,0,0,1,-0.333333333333333,0,0,0,0,0,0
3,1,643,0,0,0,1,C,3,0.1,0,0,0,0.1,0,1,1,0,0,0
1,1,513,0,1,0,0,A,1,0.1,0,0,1,0.1,0,0,0,0,0,0
3,1,712,1,0,0,1,C,3,0.1,0,0,0,-0.566666666666667,0,0,0,0,0,0
2,1,576,1,0,1,0,B,2,0.1,0,0.1,0,-0.233333333333333,0,0,0,0,0,0
1,1,803,0,1,0,0,A,1,0.1,0.1,0.1,1,0.1,0,1,0,0,0,0
1,1,714,0,1,0,0,A,1,0.1,0.1,0.1,1,-0.233333333333333,0,0,0,0,1,0
2,1,706,1,0,1,0,B,2,0.1,0.1,0.1,1,-0.233333333333333,0,0,0,0,0,0
1,1,369,0,1,0,0,A,1,0.1,0.2,0.1,0,0.2,0,1,1,0,0,0
3,1,453,1,0,0,1,C,3,0.1,0.2,0.1,0,-0.133333333333333,0,0,0,0,0,0
3,1,553,0,0,0,1,C,3,0.1,0.2,0.2,1,0.2,0,0,0,0,1,0
3,1,511,0,0,0,1,C,3,0,0.2,0.2,1,0.2,0,0,0,0,1,0
2,1,604,0,0,1,0,B,2,0,0.2,0.2,1,0.2,1,0,0,0,0,0
3,1,631,0,0,0,1,C,3,0,0.2,0.2,1,0.2,1,0,0,0,0,0
1,1,988,0,1,0,0,A,1,0,0.2,0.1,0,-0.133333333333333,1,0,0,0,0,0
3,1,618,0,0,0,1,C,3,0,0.1,0.1,1,0.1,0,0,0,0,0,0
2,1,1252,0,0,1,0,B,2,0,0.1,0.1,1,0.1,1,0,0,0,0,0
3,1,495,0,0,0,1,C,3,0,0.1,0.1,1,0.1,1,0,0,0,0,0
1,1,611,0,1,0,0,A,1,0,0,0.1,0,0.1,1,0,0,0,0,0
1,1,861,1,1,0,0,A,1,0,0,0.1,0,-0.566666666666667,0,0,0,0,0,0
2,1,512,1,0,1,0,B,2,0.1,0,0,0,-0.566666666666667,0,0,0,0,0,0
2,1,544,0,0,1,0,B,2,0.1,0.1,0,1,-0.233333333333333,0,0,0,0,1,0
1,1,626,0,1,0,0,A,1,0.1,0.1,0,1,-0.233333333333333,1,0,0,0,0,0
3,1,582,1,0,0,1,C,3,0.1,0.1,0,0,-0.233333333333333,0,0,0,0,0,0
1,1,529,0,1,0,0,A,1,0.1,0.1,0.1,1,-0.233333333333333,0,1,0,0,0,0
3,1,546,0,0,0,1,C,3,0.1,0.1,0.1,1,-0.233333333333333,1,0,0,0,0,0
1,1,431,0,1,0,0,A,1,0.1,0.1,0.1,1,-0.233333333333333,1,0,0,0,0,0
2,1,501,0,0,1,0,B,2,0.1,0.1,0.1,1,-0.233333333333333,1,0,0,0,0,0
3,1,1236,0,0,0,1,C,3,0.1,0.1,0.1,1,-0.233333333333333,1,0,0,0,0,0
2,1,503,1,0,1,0,B,2,0.1,0.1,0.1,1,-0.233333333333333,0,0,0,0,0,0
2,1,485,0,0,1,0,B,2,0,0.2,0.1,1,0.2,0,0,0,0,1,0
1,1,519,0,1,0,0,A,1,0,0.1,0.1,0,-0.233333333333333,1,0,0,0,0,0
2,1,985,1,0,1,0,B,2,0,0.1,0.1,1,-0.233333333333333,0,0,0,0,0,0
2,1,489,1,0,1,0,B,2,0,0.2,0.1,1,-0.133333333333333,0,0,0,0,0,0
2,1,510,1,0,1,0,B,2,0,0.3,0,1,-0.0333333333333333,0,0,0,0,0,0
1,1,546,1,1,0,0,A,1,0,0.4,0,0,0.0666666666666667,0,0,0,0,0,0
2,1,1078,1,0,1,0,B,2,0.1,0.4,0,1,0.0666666666666667,0,0,0,0,0,0
1,1,933,1,1,0,0,A,1,0.1,0.5,0,0,0.166666666666667,0,0,0,0,0,0
3,1,446,1,0,0,1,C,3,0.2,0.5,0,0,0.166666666666667,0,0,0,0,0,0
2,1,1103,0,0,1,0,B,2,0.2,0.5,0.1,1,0.5,0,1,0,1,0,0
1,1,375,1,1,0,0,A,1,0.2,0.4,0.1,0,0.0666666666666667,0,0,0,0,0,0
2,1,548,0,0,1,0,B,2,0.3,0.4,0.1,1,0.4,0,1,0,1,0,0
3,1,373,0,0,0,1,C,3,0.3,0.4,0.1,0,0.4,1,0,0,0,0,0
3,1,371,1,0,0,1,C,3,0.3,0.3,0.1,0,-0.366666666666667,0,0,0,0,0,0
1,1,589,1,1,0,0,A,1,0.3,0.2,0.2,1,-0.0333333333333333,0,0,0,0,0,0
3,1,589,1,0,0,1,C,3,0.4,0.1,0.2,0,0.0666666666666667,0,0,0,0,0,0
3,1,500,1,0,0,1,C,3,0.3,0.1,0.3,1,-0.0333333333333333,0,0,0,0,0,0
2,1,390,1,0,1,0,B,2,0.3,0,0.4,0,0.0666666666666667,0,0,0,0,0,0
3,1,439,1,0,0,1,C,3,0.2,0.1,0.4,1,-0.266666666666667,0,0,0,0,0,0
1,1,403,0,1,0,0,A,1,0.2,0.1,0.4,0,0.4,0,1,1,0,0,0
1,1,411,0,1,0,0,A,1,0.2,0.1,0.4,0,0.4,0,0,0,0,1,0
3,1,397,0,0,0,1,C,3,0.1,0.1,0.4,1,0.0666666666666667,0,0,0,0,0,0
3,1,342,0,0,0,1,C,3,0.1,0.1,0.4,1,0.4,0,0,0,0,1,0
1,1,415,0,1,0,0,A,1,0.1,0.1,0.4,0,0.4,1,0,0,0,0,0
1,1,1335,0,1,0,0,A,1,0.1,0.1,0.3,0,-0.0333333333333333,0,0,0,0,1,0
3,1,332,0,0,0,1,C,3,0,0.1,0.3,1,-0.0333333333333333,0,0,0,0,0,0
3,1,579,0,0,0,1,C,3,0,0.1,0.2,1,-0.133333333333333,0,0,0,0,1,0
2,1,363,0,0,1,0,B,2,0,0.1,0.1,1,-0.233333333333333,1,0,0,0,0,0
3,1,808,0,0,0,1,C,3,0,0,0.1,1,0.1,1,0,0,0,0,0
3,1,420,1,0,0,1,C,3,0,0,0,1,-0.333333333333333,0,0,0,0,0,0
1,1,643,0,1,0,0,A,1,0,0,0.1,0,-0.233333333333333,0,1,1,0,0,0
2,1,938,0,0,1,0,B,2,0,0,0.1,0,0.1,0,0,0,0,0,0
3,1,352,0,0,0,1,C,3,0,0,0.1,1,0.1,0,0,0,0,0,0
3,1,466,0,0,0,1,C,3,0,0,0.1,1,0.1,0,0,0,0,1,0
3,1,464,0,0,0,1,C,3,0,0,0.1,1,-0.233333333333333,0,0,0,0,1,1
1,1,386,0,1,0,0,A,1,0,0,0.1,0,0.1,1,0,0,0,0,0
1,1,374,0,1,0,0,A,1,0,0,0.1,0,-0.233333333333333,0,0,0,0,1,0
3,1,291,0,0,0,1,C,3,0,0,0.1,1,0.1,0,0,0,0,0,0
2,1,657,0,0,1,0,B,2,0,0,0.1,0,0.1,1,0,0,0,0,0
3,1,750,0,0,0,1,C,3,0,0,0.1,1,0.1,0,0,0,0,0,0
3,1,619,0,0,0,1,C,3,0,0,0,1,0,0,0,0,0,1,0
3,1,768,1,0,0,1,C,3,0,0,0,1,-0.333333333333333,0,0,0,0,0,0
2,1,731,0,0,1,0,B,2,0,0,0.1,0,-0.233333333333333,0,1,1,0,0,0
1,1,529,0,1,0,0,A,1,0,0,0.1,0,0.1,0,0,0,0,0,0
3,1,621,0,0,0,1,C,3,0,0,0.1,1,0.1,0,0,0,0,0,0
1,1,596,0,1,0,0,A,1,0,0,0.1,0,0.1,1,0,0,0,0,0
1,1,642,0,1,0,0,A,1,0,0,0.1,0,0.1,0,0,0,0,1,0
1,1,476,0,1,0,0,A,1,0,0,0.1,0,0.1,0,0,0,0,1,0
2,1,575,0,0,1,0,B,2,0,0,0.1,0,-0.233333333333333,0,0,0,0,0,0
2,1,877,0,0,1,0,B,2,0,0,0.1,0,-0.233333333333333,0,0,0,0,1,0
3,1,707,0,0,0,1,C,3,0,0,0.1,1,-0.233333333333333,0,0,0,0,0,0
3,1,509,1,0,0,1,C,3,0,0,0.1,1,-0.233333333333333,0,0,0,0,0,0
2,1,699,0,0,1,0,B,2,0,0,0.1,0,-0.233333333333333,0,1,1,0,0,0
1,1,571,1,1,0,0,A,1,0,0,0.1,0,-0.233333333333333,0,0,0,0,0,0
3,1,1086,1,0,0,1,C,3,0.1,0,0.1,1,-0.566666666666667,0,0,0,0,0,0
1,1,565,1,1,0,0,A,1,0.1,0,0.2,0,-0.133333333333333,0,0,0,0,0,0
3,1,502,1,0,0,1,C,3,0.2,0,0.2,1,-0.133333333333333,0,0,0,0,0,0
2,1,380,1,0,1,0,B,2,0.2,0,0.3,0,-0.366666666666667,0,0,0,0,0,0
1,1,368,1,1,0,0,A,1,0.2,0.1,0.3,0,-0.366666666666667,0,0,0,0,0,0
1,1,344,0,1,0,0,A,1,0.3,0.1,0.3,1,0.3,0,0,0,0,1,0
2,1,369,1,0,1,0,B,2,0.3,0.1,0.3,0,-0.366666666666667,0,0,0,0,0,0
3,1,398,0,0,0,1,C,3,0.3,0.2,0.3,1,0.3,0,1,0,0,0,0
3,1,493,1,0,0,1,C,3,0.3,0.2,0.2,0,-0.0333333333333333,0,0,0,0,0,0
1,1,720,1,1,0,0,A,1,0.3,0.2,0.3,1,-0.0333333333333333,0,0,0,0,0,0
3,1,394,1,0,0,1,C,3,0.3,0.2,0.3,1,-0.0333333333333333,0,0,0,0,0,0
3,1,676,1,0,0,1,C,3,0.3,0.2,0.3,1,-0.0333333333333333,0,0,0,0,0,0
3,1,816,1,0,0,1,C,3,0.2,0.2,0.4,1,0.0666666666666667,0,0,0,0,0,0
3,1,487,1,0,0,1,C,3,0.2,0.2,0.4,1,0.0666666666666667,0,0,0,0,0,0
2,1,443,1,0,1,0,B,2,0.2,0.1,0.5,0,0.166666666666667,0,0,0,0,0,0
3,1,735,1,0,0,1,C,3,0.1,0.2,0.5,1,0.166666666666667,0,0,0,0,0,0
1,1,1081,1,1,0,0,A,1,0.1,0.2,0.6,0,0.266666666666667,0,0,0,0,0,0
2,1,483,0,0,1,0,B,2,0.2,0.1,0.6,0,0.6,0,1,0,0,0,0
1,1,736,1,1,0,0,A,1,0.2,0.1,0.6,0,0.266666666666667,0,0,0,0,0,0
2,1,444,1,0,1,0,B,2,0.3,0.1,0.5,0,0.166666666666667,0,0,0,0,0,0
1,1,357,1,1,0,0,A,1,0.2,0.2,0.5,0,0.166666666666667,0,0,0,0,0,0
2,1,501,1,0,1,0,B,2,0.3,0.2,0.4,0,0.0666666666666667,0,0,0,0,0,0
3,1,342,1,0,0,1,C,3,0.3,0.3,0.3,1,-0.0333333333333333,0,0,0,0,0,0
1,1,344,1,1,0,0,A,1,0.3,0.3,0.3,1,-0.0333333333333333,0,0,0,0,0,0
1,1,315,1,1,0,0,A,1,0.4,0.3,0.2,1,0.0666666666666667,0,0,0,0,0,0
3,1,336,0,0,0,1,C,3,0.5,0.2,0.2,0,-0.166666666666667,0,1,1,0,0,0
1,1,364,0,1,0,0,A,1,0.5,0.2,0.1,1,-0.166666666666667,0,0,0,0,0,0
2,1,347,0,0,1,0,B,2,0.4,0.2,0.1,0,0.4,1,0,0,0,0,0
2,1,299,0,0,1,0,B,2,0.4,0.2,0.1,0,-0.266666666666667,0,0,0,0,1,0
3,1,261,0,0,0,1,C,3,0.3,0.2,0.1,0,-0.366666666666667,0,0,0,0,0,0
2,1,690,0,0,1,0,B,2,0.3,0.1,0.1,0,0.3,0,0,0,0,0,0
3,1,431,0,0,0,1,C,3,0.2,0.1,0.1,0,0.2,0,0,0,0,0,0
1,1,525,1,1,0,0,A,1,0.2,0,0.1,1,-0.466666666666667,0,0,0,0,0,0
2,1,379,0,0,1,0,B,2,0.3,0,0,0,0.3,0,1,1,0,0,0
1,1,347,1,1,0,0,A,1,0.2,0,0,1,-0.466666666666667,0,0,0,0,0,0
2,1,400,1,0,1,0,B,2,0.2,0,0,0,-0.466666666666667,0,0,0,0,0,0
2,1,390,0,0,1,0,B,2,0.2,0.1,0,0,0.2,0,0,0,0,1,0
2,1,439,1,0,1,0,B,2,0.2,0.1,0,0,-0.466666666666667,0,0,0,0,0,0
1,1,318,0,1,0,0,A,1,0.2,0.2,0,1,-0.133333333333333,0,1,0,0,0,0
1,1,398,0,1,0,0,A,1,0.2,0.2,0,1,0.2,0,0,0,0,1,0
3,1,492,1,0,0,1,C,3,0.2,0.2,0,0,-0.466666666666667,0,0,0,0,0,0
3,1,305,1,0,0,1,C,3,0.2,0.2,0.1,0,-0.8,0,0,0,0,0,0
1,1,465,0,1,0,0,A,1,0.2,0.2,0.2,1,0.2,0,1,0,0,0,0
1,1,367,1,1,0,0,A,1,0.1,0.2,0.2,0,-0.8,0,0,0,0,0,0
1,1,413,0,1,0,0,A,1,0.2,0.2,0.2,1,0.2,0,0,0,0,1,1
2,1,390,1,0,1,0,B,2,0.1,0.2,0.2,1,-0.466666666666667,0,0,0,0,0,0
2,1,413,0,0,1,0,B,2,0.1,0.2,0.2,1,0.2,0,0,0,0,1,0
2,1,302,0,0,1,0,B,2,0.1,0.2,0.2,1,0.2,0,0,0,0,1,1
2,1,487,1,0,1,0,B,2,0.1,0.1,0.2,0,-0.466666666666667,0,0,0,0,0,0
3,1,400,1,0,0,1,C,3,0.1,0.2,0.2,1,-0.466666666666667,0,0,0,0,0,0
2,1,350,1,0,1,0,B,2,0.1,0.2,0.3,0,-0.366666666666667,0,0,0,0,0,0
2,1,456,1,0,1,0,B,2,0.1,0.3,0.2,1,-0.366666666666667,0,0,0,0,0,0
1,1,351,1,1,0,0,A,1,0.1,0.4,0.1,0,-0.266666666666667,0,0,0,0,0,0
3,1,329,1,0,0,1,C,3,0.2,0.4,0.1,0,-0.6,0,0,0,0,0,0
3,1,306,0,0,0,1,C,3,0.1,0.4,0.2,0,0.4,0,0,0,0,1,0
3,1,396,1,0,0,1,C,3,0.1,0.4,0.2,0,-0.266666666666667,0,0,0,0,0,0
3,1,357,0,0,0,1,C,3,0.1,0.3,0.3,1,0.3,0,0,0,0,1,0
1,1,387,1,1,0,0,A,1,0.1,0.3,0.3,0,-0.0333333333333333,0,0,0,0,0,0
3,1,380,0,0,0,1,C,3,0.2,0.3,0.3,1,-0.0333333333333333,0,1,0,0,0,0
2,1,266,1,0,1,0,B,2,0.2,0.2,0.3,0,-0.0333333333333333,0,0,0,0,0,0
1,1,312,1,1,0,0,A,1,0.2,0.3,0.2,0,-0.0333333333333333,0,0,0,0,0,0
2,1,391,1,0,1,0,B,2,0.3,0.2,0.2,0,-0.0333333333333333,0,0,0,0,0,0
3,1,330,1,0,0,1,C,3,0.3,0.2,0.2,0,-0.0333333333333333,0,0,0,0,0,0
3,1,402,1,0,0,1,C,3,0.2,0.2,0.3,1,-0.366666666666667,0,0,0,0,0,0
3,1,315,1,0,0,1,C,3,0.2,0.2,0.3,1,-0.0333333333333333,0,0,0,0,0,0
1,1,326,1,1,0,0,A,1,0.2,0.2,0.4,0,-0.6,0,0,0,0,0,0
2,1,338,0,0,1,0,B,2,0.3,0.2,0.3,0,0.3,0,1,0,0,0,0
3,1,352,0,0,0,1,C,3,0.3,0.2,0.3,1,-0.0333333333333333,0,0,0,0,0,0
2,1,361,1,0,1,0,B,2,0.2,0.2,0.3,0,-0.366666666666667,0,0,0,0,0,0
1,1,331,1,1,0,0,A,1,0.2,0.3,0.3,0,-0.366666666666667,0,0,0,0,0,0
3,1,433,1,0,0,1,C,3,0.3,0.2,0.3,1,-0.366666666666667,0,0,0,0,0,0
1,1,318,1,1,0,0,A,1,0.2,0.2,0.4,0,-0.266666666666667,0,0,0,0,0,0
2,1,367,1,0,1,0,B,2,0.3,0.1,0.4,0,0.0666666666666667,0,0,0,0,0,0
2,1,433,1,0,1,0,B,2,0.3,0.2,0.3,0,-0.366666666666667,0,0,0,0,0,0
3,1,354,1,0,0,1,C,3,0.3,0.3,0.2,0,-0.0333333333333333,0,0,0,0,0,0
2,1,379,0,0,1,0,B,2,0.3,0.3,0.2,1,0.3,0,1,0,0,0,0
1,1,386,1,1,0,0,A,1,0.2,0.3,0.2,0,-0.366666666666667,0,0,0,0,0,0
2,1,364,1,0,1,0,B,2,0.3,0.3,0.2,1,-0.366666666666667,0,0,0,0,0,0
1,1,401,1,1,0,0,A,1,0.3,0.4,0.2,0,0.0666666666666667,0,0,0,0,0,0
1,1,377,1,1,0,0,A,1,0.4,0.3,0.2,1,0.0666666666666667,0,0,0,0,0,0
3,1,313,1,0,0,1,C,3,0.4,0.3,0.2,0,-0.6,0,0,0,0,0,0
2,1,327,1,0,1,0,B,2,0.4,0.3,0.2,0,-0.266666666666667,0,0,0,0,0,0
2,1,374,0,0,1,0,B,2,0.3,0.4,0.2,1,0.0666666666666667,0,0,0,0,1,0
1,1,379,1,1,0,0,A,1,0.3,0.3,0.2,1,-0.366666666666667,0,0,0,0,0,0
2,1,306,1,0,1,0,B,2,0.4,0.2,0.2,0,0.0666666666666667,0,0,0,0,0,0
2,1,367,1,0,1,0,B,2,0.4,0.3,0.1,0,0.0666666666666667,0,0,0,0,0,0
3,1,348,1,0,0,1,C,3,0.4,0.4,0.1,0,-0.6,0,0,0,0,0,0
1,1,395,1,1,0,0,A,1,0.3,0.4,0.2,0,-0.6,0,0,0,0,0,0
2,1,360,1,0,1,0,B,2,0.4,0.3,0.2,0,-0.266666666666667,0,0,0,0,0,0
3,1,306,0,0,0,1,C,3,0.3,0.4,0.2,0,0.4,0,1,0,0,0,0
3,1,408,1,0,0,1,C,3,0.2,0.4,0.2,0,0.0666666666666667,0,0,0,0,0,0
3,1,366,0,0,0,1,C,3,0.2,0.4,0.2,0,0.0666666666666667,0,0,0,0,1,0
2,1,380,1,0,1,0,B,2,0.2,0.3,0.2,1,-0.0333333333333333,0,0,0,0,0,0
1,1,327,1,1,0,0,A,1,0.2,0.4,0.2,0,0.0666666666666667,0,0,0,0,0,0
3,1,343,0,0,0,1,C,3,0.2,0.4,0.2,0,0.4,0,1,0,0,0,0
1,1,364,1,1,0,0,A,1,0.2,0.3,0.2,0,-0.366666666666667,0,0,0,0,0,0
3,1,381,1,0,0,1,C,3,0.3,0.2,0.2,0,-0.366666666666667,0,0,0,0,0,0
3,1,381,1,0,0,1,C,3,0.3,0.2,0.2,0,-0.0333333333333333,0,0,0,0,0,0
3,1,302,1,0,0,1,C,3,0.2,0.2,0.3,1,-0.0333333333333333,0,0,0,0,0,0
1,1,401,0,1,0,0,A,1,0.2,0.1,0.4,0,0.4,0,1,1,0,0,0
3,1,348,1,0,0,1,C,3,0.2,0.1,0.4,1,0.0666666666666667,0,0,0,0,0,0
2,1,343,1,0,1,0,B,2,0.2,0.1,0.4,0,0.0666666666666667,0,0,0,0,0,0
2,1,368,1,0,1,0,B,2,0.2,0.2,0.4,0,-0.6,0,0,0,0,0,0
3,1,315,1,0,0,1,C,3,0.2,0.2,0.4,1,0.0666666666666667,0,0,0,0,0,0
3,1,280,1,0,0,1,C,3,0.1,0.2,0.5,1,-0.166666666666667,0,0,0,0,0,0
2,1,380,1,0,1,0,B,2,0.1,0.2,0.6,0,0.266666666666667,0,0,0,0,0,0
3,1,367,1,0,0,1,C,3,0,0.3,0.6,1,-0.0666666666666667,0,0,0,0,0,0
2,1,382,0,0,1,0,B,2,0,0.3,0.6,0,0.266666666666667,0,1,1,0,0,0
3,1,325,1,0,0,1,C,3,0,0.3,0.5,1,0.166666666666667,0,0,0,0,0,0
3,1,299,0,0,0,1,C,3,0,0.3,0.5,1,0.166666666666667,0,0,0,0,1,0
2,1,299,1,0,1,0,B,2,0,0.3,0.5,0,-0.5,0,0,0,0,0,0
2,1,380,1,0,1,0,B,2,0,0.4,0.4,1,-0.266666666666667,0,0,0,0,0,0
2,1,321,1,0,1,0,B,2,0,0.4,0.4,1,0.0666666666666667,0,0,0,0,0,0
2,1,412,1,0,1,0,B,2,0,0.4,0.4,1,-0.266666666666667,0,0,0,0,0,0
3,1,321,1,0,0,1,C,3,0,0.5,0.3,0,0.166666666666667,0,0,0,0,0,0
2,1,512,1,0,1,0,B,2,0,0.5,0.3,1,-0.166666666666667,0,0,0,0,0,0
3,1,515,0,0,0,1,C,3,0,0.5,0.3,0,0.5,0,1,1,0,0,0
2,1,322,1,0,1,0,B,2,0,0.5,0.2,1,-0.5,0,0,0,0,0,0
2,1,373,1,0,1,0,B,2,0,0.6,0.2,1,0.266666666666667,0,0,0,0,0,0
3,1,364,0,0,0,1,C,3,0,0.7,0.1,0,0.7,0,1,1,0,0,0
3,1,408,1,0,0,1,C,3,0,0.7,0.1,0,0.366666666666667,0,0,0,0,0,0
2,1,318,1,0,1,0,B,2,0,0.6,0.2,1,-0.0666666666666667,0,0,0,0,0,0
3,1,349,1,0,0,1,C,3,0,0.6,0.2,0,-0.0666666666666667,0,0,0,0,0,0
2,1,348,0,0,1,0,B,2,0,0.5,0.3,1,0.166666666666667,0,1,0,1,0,0
2,1,463,1,0,1,0,B,2,0,0.4,0.3,1,0.0666666666666667,0,0,0,0,0,0
2,1,370,1,0,1,0,B,2,0,0.5,0.2,1,0.166666666666667,0,0,0,0,0,0
3,1,331,0,0,0,1,C,3,0,0.5,0.2,0,-0.166666666666667,0,1,1,0,0,0
2,1,301,1,0,1,0,B,2,0,0.5,0.2,1,0.166666666666667,0,0,0,0,0,0
1,1,370,1,1,0,0,A,1,0,0.5,0.2,0,0.166666666666667,0,0,0,0,0,0
2,1,374,0,0,1,0,B,2,0.1,0.4,0.2,1,0.4,0,1,0,1,0,0
3,1,309,1,0,0,1,C,3,0.1,0.4,0.2,0,0.0666666666666667,0,0,0,0,0,0
3,1,349,1,0,0,1,C,3,0.1,0.4,0.2,0,0.0666666666666667,0,0,0,0,0,0
2,1,363,1,0,1,0,B,2,0.1,0.3,0.3,1,-0.366666666666667,0,0,0,0,0,0
2,1,342,1,0,1,0,B,2,0.1,0.4,0.2,1,-0.6,0,0,0,0,0,0
1,1,409,1,1,0,0,A,1,0.1,0.5,0.2,0,0.166666666666667,0,0,0,0,0,0
2,1,354,1,0,1,0,B,2,0.2,0.4,0.2,1,-0.266666666666667,0,0,0,0,0,0
3,1,357,1,0,0,1,C,3,0.2,0.4,0.2,0,-0.266666666666667,0,0,0,0,0,0
2,1,396,1,0,1,0,B,2,0.2,0.4,0.3,1,0.0666666666666667,0,0,0,0,0,0
1,1,512,1,1,0,0,A,1,0.2,0.4,0.3,0,0.0666666666666667,0,0,0,0,0,0
3,1,370,1,0,0,1,C,3,0.2,0.4,0.3,0,-0.266666666666667,0,0,0,0,0,0
2,1,351,1,0,1,0,B,2,0.2,0.4,0.4,1,-0.266666666666667,0,0,0,0,0,0
3,1,441,1,0,0,1,C,3,0.2,0.5,0.3,0,-0.166666666666667,0,0,0,0,0,0
2,1,373,1,0,1,0,B,2,0.2,0.5,0.3,1,-0.166666666666667,0,0,0,0,0,0
1,1,2434,1,1,0,0,A,1,0.2,0.5,0.3,0,0.166666666666667,0,0,0,0,0,0
1,1,400,1,1,0,0,A,1,0.3,0.4,0.3,0,-0.266666666666667,0,0,0,0,0,0
3,1,349,1,0,0,1,C,3,0.3,0.4,0.3,0,-0.266666666666667,0,0,0,0,0,0
1,1,468,1,1,0,0,A,1,0.3,0.3,0.4,0,-0.266666666666667,0,0,0,0,0,0
2,1,364,0,0,1,0,B,2,0.4,0.3,0.3,0,0.4,0,1,0,0,0,0
1,1,377,1,1,0,0,A,1,0.4,0.2,0.3,1,-0.266666666666667,0,0,0,0,0,0
2,1,425,1,0,1,0,B,2,0.4,0.2,0.3,0,-0.266666666666667,0,0,0,0,0,0
1,1,413,0,1,0,0,A,1,0.4,0.3,0.2,1,0.4,0,1,0,1,0,0
3,1,376,1,0,0,1,C,3,0.4,0.2,0.2,0,-0.266666666666667,0,0,0,0,0,0
1,1,304,1,1,0,0,A,1,0.4,0.2,0.2,1,0.0666666666666667,0,0,0,0,0,0
3,1,312,0,0,0,1,C,3,0.5,0.1,0.2,0,0.5,0,1,1,0,0,0
2,1,318,1,0,1,0,B,2,0.4,0.1,0.2,0,0.0666666666666667,0,0,0,0,0,0
2,1,358,1,0,1,0,B,2,0.3,0.2,0.2,0,-0.7,0,0,0,0,0,0
1,1,374,1,1,0,0,A,1,0.3,0.3,0.1,1,-0.0333333333333333,0,0,0,0,0,0
3,1,344,1,0,0,1,C,3,0.3,0.3,0.1,0,-0.366666666666667,0,0,0,0,0,0
3,1,326,1,0,0,1,C,3,0.3,0.3,0.2,0,-0.366666666666667,0,0,0,0,0,0
2,1,380,1,0,1,0,B,2,0.2,0.3,0.3,1,-0.0333333333333333,0,0,0,0,0,0
3,1,427,0,0,0,1,C,3,0.2,0.3,0.3,1,-0.0333333333333333,0,1,1,0,0,0
3,1,343,1,0,0,1,C,3,0.2,0.3,0.3,1,-0.366666666666667,0,0,0,0,0,0
2,1,390,1,0,1,0,B,2,0.2,0.3,0.3,1,-0.366666666666667,0,0,0,0,0,0
3,1,294,1,0,0,1,C,3,0.1,0.4,0.3,0,0.0666666666666667,0,0,0,0,0,0
2,1,331,0,0,1,0,B,2,0.1,0.4,0.4,1,0.0666666666666667,0,1,0,1,0,0
3,1,319,1,0,0,1,C,3,0.1,0.3,0.4,1,0.0666666666666667,0,0,0,0,0,0
1,1,309,1,1,0,0,A,1,0.1,0.2,0.5,0,-0.5,0,0,0,0,0,0
3,1,286,0,0,0,1,C,3,0.1,0.2,0.5,1,0.5,0,1,0,1,0,0
3,1,286,1,0,0,1,C,3,0.1,0.2,0.4,1,0.0666666666666667,0,0,0,0,0,0
3,1,289,1,0,0,1,C,3,0.1,0.2,0.4,1,-0.266666666666667,0,0,0,0,0,0
1,1,399,1,1,0,0,A,1,0.1,0.1,0.5,0,0.166666666666667,0,0,0,0,0,0
2,1,290,1,0,1,0,B,2,0.2,0.1,0.5,0,0.166666666666667,0,0,0,0,0,0
2,1,369,1,0,1,0,B,2,0.2,0.2,0.4,0,-0.6,0,0,0,0,0,0
3,1,357,0,0,0,1,C,3,0.2,0.2,0.4,1,0.4,0,1,0,1,0,0
3,1,314,1,0,0,1,C,3,0.2,0.2,0.3,1,-0.0333333333333333,0,0,0,0,0,0
