choice_numeric_unfiltered,trial_filter,stim_RT,stim_ACC,achoice,bchoice,cchoice,stim_choice,stim_choice_numeric,prob_1,prob_2,prob_3,best_choice,above_chance_diff,prob_switch_err,spont_switch_err,erratic_spont,explore_switch,error_NOS,perseverative
2,1,4382,0,0,1,0,B,2,NaN,NaN,NaN,0,NaN,0,0,0,0,0,0
3,1,757,0,0,0,1,C,3,0,0,0,1,0,0,0,0,0,0,0
1,1,531,0,1,0,0,A,1,0,0,0,1,-0.333333333333333,1,0,0,0,0,0
2,1,697,0,0,1,0,B,2,0,0,0,1,-0.333333333333333,1,0,0,0,0,0
3,1,904,1,0,0,1,C,3,0,0,0,1,-0.666666666666667,0,0,0,0,0,0
2,1,510,1,0,1,0,B,2,0,0,0.2,0,-0.466666666666667,0,0,0,0,0,0
3,1,458,0,0,0,1,C,3,0,0.166666666666667,0.166666666666667,1,0.166666666666667,0,1,0,0,0,0
2,1,467,1,0,1,0,B,2,0,0.142857142857143,0.142857142857143,1,-0.19047619047619,0,0,0,0,0,0
2,1,545,1,0,1,0,B,2,0,0.25,0.125,1,-0.0833333333333333,0,0,0,0,0,0
1,1,402,1,1,0,0,A,1,0,0.333333333333333,0.111111111111111,0,0,0,0,0,0,0,0
1,1,356,1,1,0,0,A,1,0.1,0.3,0.1,0,-0.0333333333333333,0,0,0,0,0,0
1,1,356,1,1,0,0,A,1,0.2,0.3,0.1,0,-0.0333333333333333,0,0,0,0,0,0
3,1,685,0,0,0,1,C,3,0.3,0.3,0.1,0,-0.0333333333333333,0,1,0,0,0,0
2,1,416,0,0,1,0,B,2,0.3,0.3,0.1,1,0.3,0,0,0,0,0,0
2,1,318,1,0,1,0,B,2,0.3,0.3,0.1,1,-0.366666666666667,0,0,0,0,0,0
2,1,377,1,0,1,0,B,2,0.3,0.4,0,1,0.0666666666666667,0,0,0,0,0,0
3,1,445,1,0,0,1,C,3,0.3,0.4,0,0,0.0666666666666667,0,0,0,0,0,0
1,1,388,1,1,0,0,A,1,0.3,0.4,0.1,0,0.0666666666666667,0,0,0,0,0,0
2,1,373,1,0,1,0,B,2,0.4,0.3,0.1,0,-0.266666666666667,0,0,0,0,0,0
1,1,282,1,1,0,0,A,1,0.4,0.3,0.1,1,0.0666666666666667,0,0,0,0,0,0
3,1,405,1,0,0,1,C,3,0.4,0.3,0.1,0,0.0666666666666667,0,0,0,0,0,0
2,1,367,0,0,1,0,B,2,0.3,0.3,0.2,1,0.3,0,1,0,0,0,0
3,1,364,1,0,0,1,C,3,0.2,0.3,0.2,0,-0.0333333333333333,0,0,0,0,0,0
3,1,362,0,0,0,1,C,3,0.2,0.3,0.3,1,0.3,0,0,0,0,1,0
1,1,375,1,1,0,0,A,1,0.2,0.3,0.3,0,-0.366666666666667,0,0,0,0,0,0
1,1,563,1,1,0,0,A,1,0.3,0.2,0.3,1,-0.0333333333333333,0,0,0,0,0,0
1,1,329,1,1,0,0,A,1,0.4,0.1,0.3,1,0.0666666666666667,0,0,0,0,0,0
2,1,370,1,0,1,0,B,2,0.5,0.1,0.2,0,0.166666666666667,0,0,0,0,0,0
1,1,334,1,1,0,0,A,1,0.4,0.2,0.2,1,0.0666666666666667,0,0,0,0,0,0
3,1,334,1,0,0,1,C,3,0.5,0.1,0.2,0,0.166666666666667,0,0,0,0,0,0
3,1,770,1,0,0,1,C,3,0.4,0.1,0.3,0,0.0666666666666667,0,0,0,0,0,0
1,1,391,0,1,0,0,A,1,0.4,0.1,0.3,1,0.4,0,1,0,1,0,0
2,1,392,0,0,1,0,B,2,0.4,0.1,0.3,0,0.0666666666666667,1,0,0,0,0,0
3,1,455,0,0,0,1,C,3,0.4,0.1,0.2,0,0.0666666666666667,0,0,0,0,0,0
3,1,314,0,0,0,1,C,3,0.4,0.1,0.2,0,0.4,0,0,0,0,1,0
1,1,599,0,1,0,0,A,1,0.3,0.1,0.2,1,0.3,0,0,0,0,0,0
1,1,452,0,1,0,0,A,1,0.2,0.1,0.2,1,0.2,0,0,0,0,1,0
3,1,648,0,0,0,1,C,3,0.1,0.1,0.2,1,0.2,1,0,0,0,0,0
2,1,438,0,0,1,0,B,2,0.1,0,0.2,0,-0.133333333333333,1,0,0,0,0,0
2,1,429,0,0,1,0,B,2,0,0,0.2,0,0.2,0,0,0,0,1,0
2,1,382,0,0,1,0,B,2,0,0,0.1,0,0.1,0,0,0,0,1,0
2,1,393,0,0,1,0,B,2,0,0,0,1,-0.333333333333333,0,0,0,0,1,0
1,1,468,0,1,0,0,A,1,0,0,0,1,0,1,0,0,0,0,0
2,1,505,0,0,1,0,B,2,0,0,0,1,0,1,0,0,0,0,0
3,1,509,1,0,0,1,C,3,0,0,0,1,-0.666666666666667,0,0,0,0,0,0
2,1,1094,1,0,1,0,B,2,0,0,0.1,0,-0.233333333333333,0,0,0,0,0,0
1,1,565,0,1,0,0,A,1,0,0.1,0.1,0,0.1,0,1,0,0,0,0
1,1,454,0,1,0,0,A,1,0,0.1,0.1,0,-0.233333333333333,0,0,0,0,1,0
2,1,571,1,0,1,0,B,2,0,0.1,0.1,1,-0.233333333333333,0,0,0,0,0,0
1,1,544,0,1,0,0,A,1,0,0.2,0.1,0,0.2,0,1,1,0,0,0
3,1,405,1,0,0,1,C,3,0,0.2,0.1,0,-0.133333333333333,0,0,0,0,0,0
3,1,467,0,0,0,1,C,3,0,0.2,0.2,1,0.2,0,0,0,0,1,0
3,1,430,0,0,0,1,C,3,0,0.2,0.2,1,0.2,0,0,0,0,1,0
2,1,417,0,0,1,0,B,2,0,0.2,0.2,1,0.2,1,0,0,0,0,0
3,1,321,0,0,0,1,C,3,0,0.2,0.2,1,0.2,1,0,0,0,0,0
1,1,345,0,1,0,0,A,1,0,0.2,0.1,0,-0.133333333333333,1,0,0,0,0,0
2,1,488,0,0,1,0,B,2,0,0.1,0.1,1,0.1,0,0,0,0,0,0
3,1,716,0,0,0,1,C,3,0,0.1,0.1,1,0.1,1,0,0,0,0,0
1,1,284,0,1,0,0,A,1,0,0.1,0.1,0,0.1,1,0,0,0,0,0
2,1,416,0,0,1,0,B,2,0,0,0.1,0,0.1,0,0,0,0,0,0
2,1,505,1,0,1,0,B,2,0,0,0.1,0,-0.566666666666667,0,0,0,0,0,0
3,1,477,1,0,0,1,C,3,0,0.1,0,0,-0.566666666666667,0,0,0,0,0,0
3,1,826,1,0,0,1,C,3,0,0.1,0.1,1,-0.233333333333333,0,0,0,0,0,0
3,1,553,1,0,0,1,C,3,0,0.1,0.2,1,-0.133333333333333,0,0,0,0,0,0
2,1,520,0,0,1,0,B,2,0,0.1,0.3,0,-0.0333333333333333,0,1,1,0,0,0
2,1,437,1,0,1,0,B,2,0,0.1,0.3,0,-0.0333333333333333,0,0,0,0,0,0
2,1,654,1,0,1,0,B,2,0,0.2,0.3,0,-0.0333333333333333,0,0,0,0,0,0
2,1,584,1,0,1,0,B,2,0,0.3,0.3,1,-0.0333333333333333,0,0,0,0,0,0
3,1,545,1,0,0,1,C,3,0,0.4,0.3,0,0.0666666666666667,0,0,0,0,0,0
1,1,439,1,1,0,0,A,1,0,0.4,0.4,0,0.0666666666666667,0,0,0,0,0,0
1,1,584,1,1,0,0,A,1,0.1,0.4,0.4,0,0.0666666666666667,0,0,0,0,0,0
2,1,607,0,0,1,0,B,2,0.2,0.3,0.4,0,0.4,0,1,0,0,0,0
1,1,396,0,1,0,0,A,1,0.2,0.3,0.3,0,-0.0333333333333333,0,0,0,0,0,0
2,1,556,1,0,1,0,B,2,0.2,0.3,0.2,1,-0.0333333333333333,0,0,0,0,0,0
2,1,560,1,0,1,0,B,2,0.2,0.4,0.1,1,0.0666666666666667,0,0,0,0,0,0
2,1,850,1,0,1,0,B,2,0.2,0.5,0.1,1,0.166666666666667,0,0,0,0,0,0
1,1,446,1,1,0,0,A,1,0.2,0.5,0.1,0,0.166666666666667,0,0,0,0,0,0
2,1,454,1,0,1,0,B,2,0.3,0.4,0.1,1,0.0666666666666667,0,0,0,0,0,0
1,1,556,1,1,0,0,A,1,0.3,0.4,0.1,0,0.0666666666666667,0,0,0,0,0,0
3,1,388,1,0,0,1,C,3,0.4,0.4,0,0,0.0666666666666667,0,0,0,0,0,0
2,1,506,0,0,1,0,B,2,0.3,0.4,0.1,1,0.4,0,1,0,1,0,0
1,1,427,1,1,0,0,A,1,0.2,0.4,0.1,0,0.0666666666666667,0,0,0,0,0,0
2,1,483,0,0,1,0,B,2,0.3,0.4,0.1,1,0.4,0,1,0,1,0,0
3,1,450,0,0,0,1,C,3,0.3,0.4,0.1,0,0.4,1,0,0,0,0,0
3,1,473,1,0,0,1,C,3,0.3,0.3,0.1,0,-0.366666666666667,0,0,0,0,0,0
1,1,477,1,1,0,0,A,1,0.3,0.2,0.2,1,-0.0333333333333333,0,0,0,0,0,0
3,1,549,1,0,0,1,C,3,0.4,0.1,0.2,0,0.0666666666666667,0,0,0,0,0,0
3,1,472,1,0,0,1,C,3,0.3,0.1,0.3,1,-0.0333333333333333,0,0,0,0,0,0
2,1,446,1,0,1,0,B,2,0.3,0,0.4,0,0.0666666666666667,0,0,0,0,0,0
3,1,548,1,0,0,1,C,3,0.2,0.1,0.4,1,-0.266666666666667,0,0,0,0,0,0
1,1,472,0,1,0,0,A,1,0.2,0.1,0.4,0,0.4,0,1,1,0,0,0
1,1,402,0,1,0,0,A,1,0.2,0.1,0.4,0,0.4,0,0,0,0,1,0
3,1,630,0,0,0,1,C,3,0.1,0.1,0.4,1,0.0666666666666667,0,0,0,0,0,0
3,1,465,0,0,0,1,C,3,0.1,0.1,0.4,1,0.4,0,0,0,0,1,0
1,1,379,0,1,0,0,A,1,0.1,0.1,0.4,0,0.4,1,0,0,0,0,0
1,1,277,1,1,0,0,A,1,0.1,0.1,0.3,0,-0.0333333333333333,0,0,0,0,0,0
2,1,396,1,0,1,0,B,2,0.1,0.1,0.3,0,-0.0333333333333333,0,0,0,0,0,0
2,1,542,1,0,1,0,B,2,0.1,0.2,0.2,1,-0.133333333333333,0,0,0,0,0,0
3,1,465,1,0,0,1,C,3,0.1,0.3,0.1,0,-0.0333333333333333,0,0,0,0,0,0
2,1,814,0,0,1,0,B,2,0.1,0.2,0.2,1,0.2,0,1,0,0,0,0
1,1,736,1,1,0,0,A,1,0.1,0.2,0.1,0,-0.133333333333333,0,0,0,0,0,0
1,1,398,0,1,0,0,A,1,0.2,0.2,0.1,1,-0.133333333333333,0,0,0,0,1,0
2,1,753,0,0,1,0,B,2,0.2,0.2,0.1,1,0.2,1,0,0,0,0,0
3,1,1377,0,0,0,1,C,3,0.2,0.2,0.1,0,0.2,1,0,0,0,0,0
3,1,1754,0,0,0,1,C,3,0.2,0.2,0.1,0,0.2,0,0,0,0,1,0
3,1,552,0,0,0,1,C,3,0.2,0.2,0.1,0,-0.133333333333333,0,0,0,0,1,0
1,1,862,0,1,0,0,A,1,0.1,0.2,0.1,0,0.2,0,0,0,0,0,0
1,1,1266,0,1,0,0,A,1,0.1,0.1,0.1,1,-0.233333333333333,0,0,0,0,1,0
1,1,1463,0,1,0,0,A,1,0.1,0,0.1,1,0.1,0,0,0,0,1,0
1,1,481,0,1,0,0,A,1,0.1,0,0,1,0.1,0,0,0,0,1,1
2,1,389,0,0,1,0,B,2,0.1,0,0,0,0.1,1,0,0,0,0,0
1,1,317,0,1,0,0,A,1,0,0,0,1,0,0,0,0,0,0,0
1,1,273,1,1,0,0,A,1,0,0,0,1,-0.333333333333333,0,0,0,0,0,0
2,1,350,0,0,1,0,B,2,0.1,0,0,0,-0.233333333333333,0,1,1,0,0,0
1,1,336,0,1,0,0,A,1,0.1,0,0,1,0.1,0,0,0,0,0,0
3,1,377,0,0,0,1,C,3,0.1,0,0,0,0.1,1,0,0,0,0,0
1,1,304,0,1,0,0,A,1,0.1,0,0,1,0.1,0,0,0,0,0,0
1,1,274,0,1,0,0,A,1,0.1,0,0,1,0.1,0,0,0,0,1,0
2,1,411,0,0,1,0,B,2,0.1,0,0,0,0.1,1,0,0,0,0,0
3,1,367,0,0,0,1,C,3,0.1,0,0,0,-0.233333333333333,0,0,0,0,0,0
3,1,325,1,0,0,1,C,3,0.1,0,0,0,-0.233333333333333,0,0,0,0,0,0
2,1,404,0,0,1,0,B,2,0.1,0,0.1,0,-0.233333333333333,0,1,0,0,0,0
3,1,381,1,0,0,1,C,3,0.1,0,0.1,1,-0.233333333333333,0,0,0,0,0,0
2,1,420,0,0,1,0,B,2,0,0,0.2,0,-0.133333333333333,0,1,1,0,0,0
1,1,456,1,1,0,0,A,1,0,0,0.2,0,-0.133333333333333,0,0,0,0,0,0
3,1,468,1,0,0,1,C,3,0.1,0,0.2,1,-0.466666666666667,0,0,0,0,0,0
1,1,714,1,1,0,0,A,1,0.1,0,0.3,0,-0.0333333333333333,0,0,0,0,0,0
3,1,486,1,0,0,1,C,3,0.2,0,0.3,1,-0.0333333333333333,0,0,0,0,0,0
2,1,415,1,0,1,0,B,2,0.2,0,0.4,0,-0.266666666666667,0,0,0,0,0,0
1,1,469,1,1,0,0,A,1,0.2,0.1,0.4,0,-0.266666666666667,0,0,0,0,0,0
1,1,406,0,1,0,0,A,1,0.3,0.1,0.4,0,0.4,0,0,0,0,1,0
2,1,334,1,0,1,0,B,2,0.3,0.1,0.3,0,-0.366666666666667,0,0,0,0,0,0
3,1,419,0,0,0,1,C,3,0.3,0.2,0.3,1,0.3,0,1,0,0,0,0
3,1,388,1,0,0,1,C,3,0.3,0.2,0.2,0,-0.0333333333333333,0,0,0,0,0,0
1,1,334,1,1,0,0,A,1,0.3,0.2,0.3,1,-0.0333333333333333,0,0,0,0,0,0
3,1,349,1,0,0,1,C,3,0.3,0.2,0.3,1,-0.0333333333333333,0,0,0,0,0,0
3,1,464,1,0,0,1,C,3,0.3,0.2,0.3,1,-0.0333333333333333,0,0,0,0,0,0
3,1,387,1,0,0,1,C,3,0.2,0.2,0.4,1,0.0666666666666667,0,0,0,0,0,0
3,1,335,1,0,0,1,C,3,0.2,0.2,0.4,1,0.0666666666666667,0,0,0,0,0,0
2,1,374,1,0,1,0,B,2,0.2,0.1,0.5,0,0.166666666666667,0,0,0,0,0,0
3,1,497,1,0,0,1,C,3,0.1,0.2,0.5,1,0.166666666666667,0,0,0,0,0,0
1,1,507,1,1,0,0,A,1,0.1,0.2,0.6,0,0.266666666666667,0,0,0,0,0,0
2,1,484,0,0,1,0,B,2,0.2,0.1,0.6,0,0.6,0,1,0,0,0,0
1,1,714,1,1,0,0,A,1,0.2,0.1,0.6,0,0.266666666666667,0,0,0,0,0,0
2,1,448,1,0,1,0,B,2,0.3,0.1,0.5,0,0.166666666666667,0,0,0,0,0,0
1,1,433,1,1,0,0,A,1,0.2,0.2,0.5,0,0.166666666666667,0,0,0,0,0,0
2,1,349,1,0,1,0,B,2,0.3,0.2,0.4,0,0.0666666666666667,0,0,0,0,0,0
3,1,563,1,0,0,1,C,3,0.3,0.3,0.3,1,-0.0333333333333333,0,0,0,0,0,0
1,1,399,1,1,0,0,A,1,0.3,0.3,0.3,1,-0.0333333333333333,0,0,0,0,0,0
1,1,470,1,1,0,0,A,1,0.4,0.3,0.2,1,0.0666666666666667,0,0,0,0,0,0
3,1,414,0,0,0,1,C,3,0.5,0.2,0.2,0,-0.166666666666667,0,1,1,0,0,0
1,1,889,0,1,0,0,A,1,0.5,0.2,0.1,1,-0.166666666666667,0,0,0,0,0,0
2,1,1873,0,0,1,0,B,2,0.4,0.2,0.1,0,0.4,1,0,0,0,0,0
2,1,1249,0,0,1,0,B,2,0.4,0.2,0.1,0,-0.266666666666667,0,0,0,0,1,0
3,1,357,0,0,0,1,C,3,0.3,0.2,0.1,0,-0.366666666666667,0,0,0,0,0,0
2,1,298,0,0,1,0,B,2,0.3,0.1,0.1,0,0.3,0,0,0,0,0,0
1,1,310,0,1,0,0,A,1,0.2,0.1,0.1,1,0.2,0,0,0,0,0,0
2,1,374,0,0,1,0,B,2,0.2,0,0.1,0,-0.466666666666667,1,0,0,0,0,0
3,1,289,0,0,0,1,C,3,0.2,0,0,0,0.2,0,0,0,0,0,0
2,1,311,0,0,1,0,B,2,0.1,0,0,0,-0.566666666666667,0,0,0,0,0,0
1,1,297,0,1,0,0,A,1,0,0,0,1,-0.666666666666667,0,0,0,0,0,0
3,1,351,0,0,0,1,C,3,0,0,0,1,0,1,0,0,0,0,0
1,1,358,0,1,0,0,A,1,0,0,0,1,-0.666666666666667,1,0,0,0,0,0
3,1,493,1,0,0,1,C,3,0,0,0,1,-0.333333333333333,0,0,0,0,0,0
3,1,552,0,0,0,1,C,3,0,0,0.1,1,0.1,0,0,0,0,1,0
1,1,338,0,1,0,0,A,1,0,0,0.1,0,-0.566666666666667,1,0,0,0,0,0
2,1,331,1,0,1,0,B,2,0,0,0.1,0,-0.9,0,0,0,0,0,0
3,1,479,0,0,0,1,C,3,0,0.1,0.1,1,0.1,0,1,0,0,0,0
2,1,316,1,0,1,0,B,2,0,0.1,0.1,1,-0.9,0,0,0,0,0,0
3,1,576,0,0,0,1,C,3,0,0.2,0.1,0,0.2,0,1,1,0,0,0
1,1,378,0,1,0,0,A,1,0,0.2,0.1,0,-0.466666666666667,0,0,0,0,0,0
1,1,355,0,1,0,0,A,1,0,0.2,0.1,0,0.2,0,0,0,0,1,0
1,1,358,0,1,0,0,A,1,0,0.2,0.1,0,0.2,0,0,0,0,1,0
1,1,282,0,1,0,0,A,1,0,0.2,0.1,0,-0.466666666666667,0,0,0,0,1,0
2,1,361,0,0,1,0,B,2,0,0.2,0,1,-0.466666666666667,0,0,0,0,0,0
1,1,294,0,1,0,0,A,1,0,0.2,0,0,-0.466666666666667,1,0,0,0,0,0
3,1,270,1,0,0,1,C,3,0,0.2,0,0,-0.466666666666667,0,0,0,0,0,0
1,1,657,0,1,0,0,A,1,0,0.1,0.1,0,-0.566666666666667,0,1,0,0,0,0
2,1,368,1,0,1,0,B,2,0,0.1,0.1,1,-0.9,0,0,0,0,0,0
3,1,312,0,0,0,1,C,3,0,0.1,0.1,1,0.1,0,1,1,0,0,0
3,1,404,0,0,0,1,C,3,0,0.1,0.1,1,-0.566666666666667,0,0,0,0,1,0
2,1,338,0,0,1,0,B,2,0,0.1,0.1,1,0.1,1,0,0,0,0,0
1,1,517,0,1,0,0,A,1,0,0.1,0.1,0,-0.233333333333333,1,0,0,0,0,0
2,1,322,0,0,1,0,B,2,0,0.1,0.1,1,-0.233333333333333,0,0,0,0,0,0
3,1,855,0,0,0,1,C,3,0,0.1,0.1,1,-0.233333333333333,1,0,0,0,0,0
2,1,393,0,0,1,0,B,2,0,0.1,0.1,1,-0.233333333333333,1,0,0,0,0,0
1,1,347,0,1,0,0,A,1,0,0.1,0.1,0,-0.233333333333333,1,0,0,0,0,0
1,1,279,0,1,0,0,A,1,0,0.1,0,0,-0.233333333333333,0,0,0,0,1,0
2,1,627,0,0,1,0,B,2,0,0.1,0,1,-0.566666666666667,0,0,0,0,0,0
2,1,269,0,0,1,0,B,2,0,0,0,1,-0.333333333333333,0,0,0,0,1,0
2,1,326,1,0,1,0,B,2,0,0,0,1,-1,0,0,0,0,0,0
2,1,387,0,0,1,0,B,2,0,0.1,0,1,0.1,0,0,0,0,1,1
3,1,324,0,0,0,1,C,3,0,0.1,0,0,-0.233333333333333,1,0,0,0,0,0
2,1,304,1,0,1,0,B,2,0,0.1,0,1,-0.566666666666667,0,0,0,0,0,0
1,1,437,1,1,0,0,A,1,0,0.2,0,0,-0.466666666666667,0,0,0,0,0,0
3,1,284,1,0,0,1,C,3,0.1,0.2,0,0,-0.466666666666667,0,0,0,0,0,0
1,1,326,1,1,0,0,A,1,0.1,0.2,0.1,0,-0.466666666666667,0,0,0,0,0,0
2,1,304,1,0,1,0,B,2,0.2,0.2,0.1,1,-0.133333333333333,0,0,0,0,0,0
2,1,294,1,0,1,0,B,2,0.2,0.3,0.1,1,-0.366666666666667,0,0,0,0,0,0
3,1,285,1,0,0,1,C,3,0.2,0.4,0.1,0,0.0666666666666667,0,0,0,0,0,0
2,1,380,0,0,1,0,B,2,0.2,0.4,0.2,1,0.4,0,1,0,1,0,0
1,1,358,1,1,0,0,A,1,0.2,0.3,0.2,0,-0.366666666666667,0,0,0,0,0,0
2,1,343,1,0,1,0,B,2,0.3,0.3,0.2,1,-0.366666666666667,0,0,0,0,0,0
1,1,306,1,1,0,0,A,1,0.3,0.4,0.2,0,0.0666666666666667,0,0,0,0,0,0
1,1,303,1,1,0,0,A,1,0.4,0.3,0.2,1,0.0666666666666667,0,0,0,0,0,0
3,1,336,1,0,0,1,C,3,0.4,0.3,0.2,0,-0.6,0,0,0,0,0,0
2,1,288,1,0,1,0,B,2,0.4,0.3,0.2,0,-0.266666666666667,0,0,0,0,0,0
2,1,320,0,0,1,0,B,2,0.3,0.4,0.2,1,0.0666666666666667,0,0,0,0,1,0
1,1,298,1,1,0,0,A,1,0.3,0.3,0.2,1,-0.366666666666667,0,0,0,0,0,0
2,1,336,1,0,1,0,B,2,0.4,0.2,0.2,0,0.0666666666666667,0,0,0,0,0,0
2,1,351,1,0,1,0,B,2,0.4,0.3,0.1,0,0.0666666666666667,0,0,0,0,0,0
3,1,326,1,0,0,1,C,3,0.4,0.4,0.1,0,-0.6,0,0,0,0,0,0
1,1,264,1,1,0,0,A,1,0.3,0.4,0.2,0,-0.6,0,0,0,0,0,0
2,1,284,1,0,1,0,B,2,0.4,0.3,0.2,0,-0.266666666666667,0,0,0,0,0,0
3,1,342,0,0,0,1,C,3,0.3,0.4,0.2,0,0.4,0,1,0,0,0,0
3,1,249,1,0,0,1,C,3,0.2,0.4,0.2,0,0.0666666666666667,0,0,0,0,0,0
3,1,263,0,0,0,1,C,3,0.2,0.4,0.2,0,0.0666666666666667,0,0,0,0,1,0
2,1,370,1,0,1,0,B,2,0.2,0.3,0.2,1,-0.0333333333333333,0,0,0,0,0,0
1,1,378,1,1,0,0,A,1,0.2,0.4,0.2,0,0.0666666666666667,0,0,0,0,0,0
3,1,309,0,0,0,1,C,3,0.2,0.4,0.2,0,0.4,0,1,0,0,0,0
1,1,311,1,1,0,0,A,1,0.2,0.3,0.2,0,-0.366666666666667,0,0,0,0,0,0
3,1,329,1,0,0,1,C,3,0.3,0.2,0.2,0,-0.366666666666667,0,0,0,0,0,0
3,1,271,1,0,0,1,C,3,0.3,0.2,0.2,0,-0.0333333333333333,0,0,0,0,0,0
3,1,321,1,0,0,1,C,3,0.2,0.2,0.3,1,-0.0333333333333333,0,0,0,0,0,0
1,1,305,0,1,0,0,A,1,0.2,0.1,0.4,0,0.4,0,1,1,0,0,0
3,1,282,1,0,0,1,C,3,0.2,0.1,0.4,1,0.0666666666666667,0,0,0,0,0,0
2,1,328,1,0,1,0,B,2,0.2,0.1,0.4,0,0.0666666666666667,0,0,0,0,0,0
2,1,315,1,0,1,0,B,2,0.2,0.2,0.4,0,-0.6,0,0,0,0,0,0
3,1,260,1,0,0,1,C,3,0.2,0.2,0.4,1,0.0666666666666667,0,0,0,0,0,0
3,1,243,1,0,0,1,C,3,0.1,0.2,0.5,1,-0.166666666666667,0,0,0,0,0,0
2,1,463,1,0,1,0,B,2,0.1,0.2,0.6,0,0.266666666666667,0,0,0,0,0,0
3,1,351,1,0,0,1,C,3,0,0.3,0.6,1,-0.0666666666666667,0,0,0,0,0,0
2,1,294,0,0,1,0,B,2,0,0.3,0.6,0,0.266666666666667,0,1,1,0,0,0
3,1,286,1,0,0,1,C,3,0,0.3,0.5,1,0.166666666666667,0,0,0,0,0,0
3,1,370,0,0,0,1,C,3,0,0.3,0.5,1,0.166666666666667,0,0,0,0,1,0
2,1,457,1,0,1,0,B,2,0,0.3,0.5,0,-0.5,0,0,0,0,0,0
2,1,313,1,0,1,0,B,2,0,0.4,0.4,1,-0.266666666666667,0,0,0,0,0,0
2,1,315,1,0,1,0,B,2,0,0.4,0.4,1,0.0666666666666667,0,0,0,0,0,0
2,1,261,1,0,1,0,B,2,0,0.4,0.4,1,-0.266666666666667,0,0,0,0,0,0
3,1,230,1,0,0,1,C,3,0,0.5,0.3,0,0.166666666666667,0,0,0,0,0,0
2,1,293,0,0,1,0,B,2,0,0.5,0.3,1,-0.166666666666667,0,1,0,1,0,0
2,1,341,0,0,1,0,B,2,0,0.4,0.3,1,0.4,0,0,0,0,1,0
2,1,292,1,0,1,0,B,2,0,0.4,0.2,1,-0.6,0,0,0,0,0,0
2,1,293,1,0,1,0,B,2,0,0.5,0.2,1,0.166666666666667,0,0,0,0,0,0
3,1,290,0,0,0,1,C,3,0,0.6,0.1,0,0.6,0,1,1,0,0,0
3,1,250,1,0,0,1,C,3,0,0.6,0.1,0,0.266666666666667,0,0,0,0,0,0
2,1,305,1,0,1,0,B,2,0,0.5,0.2,1,-0.166666666666667,0,0,0,0,0,0
3,1,347,1,0,0,1,C,3,0,0.5,0.2,0,-0.166666666666667,0,0,0,0,0,0
2,1,348,0,0,1,0,B,2,0,0.4,0.3,1,0.0666666666666667,0,1,0,1,0,0
2,1,290,1,0,1,0,B,2,0,0.3,0.3,1,-0.0333333333333333,0,0,0,0,0,0
2,1,364,1,0,1,0,B,2,0,0.4,0.2,1,0.0666666666666667,0,0,0,0,0,0
3,1,338,0,0,0,1,C,3,0,0.5,0.2,0,-0.166666666666667,0,1,1,0,0,0
2,1,296,1,0,1,0,B,2,0,0.5,0.2,1,0.166666666666667,0,0,0,0,0,0
1,1,283,1,1,0,0,A,1,0,0.5,0.2,0,0.166666666666667,0,0,0,0,0,0
2,1,304,0,0,1,0,B,2,0.1,0.4,0.2,1,0.4,0,1,0,1,0,0
3,1,331,1,0,0,1,C,3,0.1,0.4,0.2,0,0.0666666666666667,0,0,0,0,0,0
3,1,340,1,0,0,1,C,3,0.1,0.4,0.2,0,0.0666666666666667,0,0,0,0,0,0
2,1,316,1,0,1,0,B,2,0.1,0.3,0.3,1,-0.366666666666667,0,0,0,0,0,0
2,1,306,1,0,1,0,B,2,0.1,0.4,0.2,1,-0.6,0,0,0,0,0,0
1,1,297,1,1,0,0,A,1,0.1,0.5,0.2,0,0.166666666666667,0,0,0,0,0,0
2,1,303,1,0,1,0,B,2,0.2,0.4,0.2,1,-0.266666666666667,0,0,0,0,0,0
3,1,275,1,0,0,1,C,3,0.2,0.4,0.2,0,-0.266666666666667,0,0,0,0,0,0
2,1,366,1,0,1,0,B,2,0.2,0.4,0.3,1,0.0666666666666667,0,0,0,0,0,0
1,1,552,1,1,0,0,A,1,0.2,0.4,0.3,0,0.0666666666666667,0,0,0,0,0,0
3,1,261,1,0,0,1,C,3,0.2,0.4,0.3,0,-0.266666666666667,0,0,0,0,0,0
2,1,268,1,0,1,0,B,2,0.2,0.4,0.4,1,-0.266666666666667,0,0,0,0,0,0
3,1,261,1,0,0,1,C,3,0.2,0.5,0.3,0,-0.166666666666667,0,0,0,0,0,0
2,1,280,1,0,1,0,B,2,0.2,0.5,0.3,1,-0.166666666666667,0,0,0,0,0,0
1,1,263,1,1,0,0,A,1,0.2,0.5,0.3,0,0.166666666666667,0,0,0,0,0,0
1,1,257,1,1,0,0,A,1,0.3,0.4,0.3,0,-0.266666666666667,0,0,0,0,0,0
3,1,335,1,0,0,1,C,3,0.3,0.4,0.3,0,-0.266666666666667,0,0,0,0,0,0
1,1,292,1,1,0,0,A,1,0.3,0.3,0.4,0,-0.266666666666667,0,0,0,0,0,0
2,1,346,0,0,1,0,B,2,0.4,0.3,0.3,0,0.4,0,1,0,0,0,0
1,1,334,1,1,0,0,A,1,0.4,0.2,0.3,1,-0.266666666666667,0,0,0,0,0,0
2,1,394,1,0,1,0,B,2,0.4,0.2,0.3,0,-0.266666666666667,0,0,0,0,0,0
1,1,374,0,1,0,0,A,1,0.4,0.3,0.2,1,0.4,0,1,0,1,0,0
3,1,449,1,0,0,1,C,3,0.4,0.2,0.2,0,-0.266666666666667,0,0,0,0,0,0
1,1,294,1,1,0,0,A,1,0.4,0.2,0.2,1,0.0666666666666667,0,0,0,0,0,0
3,1,405,0,0,0,1,C,3,0.5,0.1,0.2,0,0.5,0,1,1,0,0,0
2,1,339,1,0,1,0,B,2,0.4,0.1,0.2,0,0.0666666666666667,0,0,0,0,0,0
2,1,266,1,0,1,0,B,2,0.3,0.2,0.2,0,-0.7,0,0,0,0,0,0
1,1,297,1,1,0,0,A,1,0.3,0.3,0.1,1,-0.0333333333333333,0,0,0,0,0,0
3,1,312,1,0,0,1,C,3,0.3,0.3,0.1,0,-0.366666666666667,0,0,0,0,0,0
3,1,279,1,0,0,1,C,3,0.3,0.3,0.2,0,-0.366666666666667,0,0,0,0,0,0
2,1,317,1,0,1,0,B,2,0.2,0.3,0.3,1,-0.0333333333333333,0,0,0,0,0,0
3,1,318,0,0,0,1,C,3,0.2,0.3,0.3,1,-0.0333333333333333,0,1,1,0,0,0
3,1,289,1,0,0,1,C,3,0.2,0.3,0.3,1,-0.366666666666667,0,0,0,0,0,0
2,1,284,1,0,1,0,B,2,0.2,0.3,0.3,1,-0.366666666666667,0,0,0,0,0,0
3,1,297,1,0,0,1,C,3,0.1,0.4,0.3,0,0.0666666666666667,0,0,0,0,0,0
2,1,340,0,0,1,0,B,2,0.1,0.4,0.4,1,0.0666666666666667,0,1,0,1,0,0
3,1,364,1,0,0,1,C,3,0.1,0.3,0.4,1,0.0666666666666667,0,0,0,0,0,0
1,1,365,1,1,0,0,A,1,0.1,0.2,0.5,0,-0.5,0,0,0,0,0,0
1,1,306,0,1,0,0,A,1,0.1,0.2,0.5,0,0.5,0,0,0,0,1,0
3,1,278,1,0,0,1,C,3,0.1,0.2,0.4,1,0.0666666666666667,0,0,0,0,0,0
3,1,316,1,0,0,1,C,3,0.1,0.2,0.4,1,-0.266666666666667,0,0,0,0,0,0
1,1,432,1,1,0,0,A,1,0.1,0.1,0.5,0,0.166666666666667,0,0,0,0,0,0
2,1,347,1,0,1,0,B,2,0.2,0.1,0.5,0,0.166666666666667,0,0,0,0,0,0
2,1,311,1,0,1,0,B,2,0.2,0.2,0.4,0,-0.6,0,0,0,0,0,0
3,1,378,0,0,0,1,C,3,0.2,0.2,0.4,1,0.4,0,1,0,1,0,0
3,1,297,1,0,0,1,C,3,0.2,0.2,0.3,1,-0.0333333333333333,0,0,0,0,0,0
