choice_numeric_unfiltered,trial_filter,stim_RT,stim_ACC,achoice,bchoice,cchoice,stim_choice,stim_choice_numeric,prob_1,prob_2,prob_3,best_choice,above_chance_diff,prob_switch_err,spont_switch_err,erratic_spont,explore_switch,error_NOS,perseverative
1,1,4028,1,1,0,0,A,1,NaN,NaN,NaN,0,NaN,0,0,0,0,0,0
1,1,2195,0,1,0,0,A,1,1,0,0,1,1,0,0,0,0,1,0
1,1,578,0,1,0,0,A,1,0.5,0,0,1,0.166666666666667,0,0,0,0,1,0
3,1,1755,1,0,0,1,C,3,0.333333333333333,0,0,0,0,0,0,0,0,0,0
1,1,1106,1,1,0,0,A,1,0.25,0,0.25,1,-0.416666666666667,0,0,0,0,0,0
3,1,1554,1,0,0,1,C,3,0.4,0,0.2,0,-0.266666666666667,0,0,0,0,0,0
1,1,849,0,1,0,0,A,1,0.333333333333333,0,0.333333333333333,1,0.333333333333333,0,1,0,0,0,0
1,1,799,1,1,0,0,A,1,0.285714285714286,0,0.285714285714286,1,-0.0476190476190476,0,0,0,0,0,0
2,1,618,0,0,1,0,B,2,0.375,0,0.25,0,0.0416666666666667,0,1,1,0,0,0
2,1,422,1,0,1,0,B,2,0.333333333333333,0,0.222222222222222,0,0,0,0,0,0,0,0
1,1,524,1,1,0,0,A,1,0.3,0.1,0.2,1,-0.0333333333333333,0,0,0,0,0,0
1,1,532,1,1,0,0,A,1,0.3,0.1,0.2,1,-0.0333333333333333,0,0,0,0,0,0
3,1,828,0,0,0,1,C,3,0.4,0.1,0.2,0,0.0666666666666667,0,1,1,0,0,0
3,1,582,0,0,0,1,C,3,0.4,0.1,0.2,0,0.4,0,0,0,0,1,0
2,1,766,1,0,1,0,B,2,0.4,0.1,0.1,0,-0.266666666666667,0,0,0,0,0,0
2,1,1285,1,0,1,0,B,2,0.3,0.2,0.1,0,-0.0333333333333333,0,0,0,0,0,0
3,1,348,1,0,0,1,C,3,0.3,0.3,0,0,-0.0333333333333333,0,0,0,0,0,0
1,1,383,1,1,0,0,A,1,0.3,0.3,0.1,1,-0.0333333333333333,0,0,0,0,0,0
2,1,369,1,0,1,0,B,2,0.3,0.3,0.1,1,-0.366666666666667,0,0,0,0,0,0
1,1,338,1,1,0,0,A,1,0.3,0.4,0.1,0,0.0666666666666667,0,0,0,0,0,0
3,1,407,1,0,0,1,C,3,0.4,0.3,0.1,0,0.0666666666666667,0,0,0,0,0,0
2,1,307,0,0,1,0,B,2,0.3,0.3,0.2,1,0.3,0,1,0,0,0,0
3,1,345,1,0,0,1,C,3,0.2,0.3,0.2,0,-0.0333333333333333,0,0,0,0,0,0
3,1,354,0,0,0,1,C,3,0.2,0.3,0.3,1,0.3,0,0,0,0,1,0
1,1,332,1,1,0,0,A,1,0.2,0.3,0.3,0,-0.366666666666667,0,0,0,0,0,0
1,1,392,1,1,0,0,A,1,0.3,0.2,0.3,1,-0.0333333333333333,0,0,0,0,0,0
1,1,355,1,1,0,0,A,1,0.4,0.1,0.3,1,0.0666666666666667,0,0,0,0,0,0
2,1,388,1,0,1,0,B,2,0.5,0.1,0.2,0,0.166666666666667,0,0,0,0,0,0
1,1,402,1,1,0,0,A,1,0.4,0.2,0.2,1,0.0666666666666667,0,0,0,0,0,0
3,1,410,1,0,0,1,C,3,0.5,0.1,0.2,0,0.166666666666667,0,0,0,0,0,0
3,1,415,1,0,0,1,C,3,0.4,0.1,0.3,0,0.0666666666666667,0,0,0,0,0,0
1,1,410,0,1,0,0,A,1,0.4,0.1,0.3,1,0.4,0,1,0,1,0,0
2,1,488,0,0,1,0,B,2,0.4,0.1,0.3,0,0.0666666666666667,1,0,0,0,0,0
3,1,376,0,0,0,1,C,3,0.4,0.1,0.2,0,0.0666666666666667,0,0,0,0,0,0
3,1,525,0,0,0,1,C,3,0.4,0.1,0.2,0,0.4,0,0,0,0,1,0
2,1,611,0,0,1,0,B,2,0.3,0.1,0.2,0,0.3,0,0,0,0,0,0
1,1,367,0,1,0,0,A,1,0.2,0.1,0.2,1,0.2,0,0,0,0,0,0
3,1,455,0,0,0,1,C,3,0.1,0.1,0.2,1,0.2,1,0,0,0,0,0
1,1,511,0,1,0,0,A,1,0.1,0,0.2,0,-0.133333333333333,1,0,0,0,0,0
3,1,772,0,0,0,1,C,3,0,0,0.2,1,0.2,0,0,0,0,0,0
2,1,829,0,0,1,0,B,2,0,0,0.1,0,0.1,1,0,0,0,0,0
1,1,574,0,1,0,0,A,1,0,0,0,1,-0.333333333333333,0,0,0,0,0,0
1,1,426,0,1,0,0,A,1,0,0,0,1,0,0,0,0,0,1,0
1,1,404,0,1,0,0,A,1,0,0,0,1,0,0,0,0,0,1,1
1,1,346,1,1,0,0,A,1,0,0,0,1,-0.666666666666667,0,0,0,0,0,0
3,1,732,0,0,0,1,C,3,0.1,0,0,0,-0.233333333333333,0,1,1,0,0,0
2,1,358,0,0,1,0,B,2,0.1,0,0,0,0.1,0,0,0,0,0,0
3,1,413,1,0,0,1,C,3,0.1,0,0,0,-0.233333333333333,0,0,0,0,0,0
1,1,466,0,1,0,0,A,1,0.1,0,0.1,1,-0.233333333333333,0,1,0,0,0,0
2,1,489,0,0,1,0,B,2,0.1,0,0.1,0,0.1,1,0,0,0,0,0
1,1,673,0,1,0,0,A,1,0.1,0,0.1,1,-0.233333333333333,0,0,0,0,0,0
1,1,427,0,1,0,0,A,1,0.1,0,0.1,1,0.1,0,0,0,0,1,0
3,1,393,0,0,0,1,C,3,0.1,0,0.1,1,0.1,1,0,0,0,0,0
2,1,500,0,0,1,0,B,2,0.1,0,0.1,0,0.1,1,0,0,0,0,0
2,1,586,0,0,1,0,B,2,0.1,0,0.1,0,0.1,0,0,0,0,1,0
3,1,323,1,0,0,1,C,3,0,0,0.1,1,-0.233333333333333,0,0,0,0,0,0
1,1,280,0,1,0,0,A,1,0,0,0.2,0,0.2,0,1,1,0,0,0
1,1,721,0,1,0,0,A,1,0,0,0.2,0,0.2,0,0,0,0,1,0
1,1,566,0,1,0,0,A,1,0,0,0.1,0,0.1,0,0,0,0,1,0
3,1,489,0,0,0,1,C,3,0,0,0.1,1,0.1,0,0,0,0,0,0
3,1,535,1,0,0,1,C,3,0,0,0.1,1,-0.566666666666667,0,0,0,0,0,0
2,1,452,1,0,1,0,B,2,0,0,0.2,0,-0.466666666666667,0,0,0,0,0,0
3,1,412,1,0,0,1,C,3,0,0.1,0.2,1,-0.133333333333333,0,0,0,0,0,0
3,1,397,1,0,0,1,C,3,0,0.1,0.3,1,-0.0333333333333333,0,0,0,0,0,0
2,1,375,0,0,1,0,B,2,0,0.1,0.4,0,0.0666666666666667,0,1,1,0,0,0
2,1,387,1,0,1,0,B,2,0,0.1,0.4,0,0.0666666666666667,0,0,0,0,0,0
2,1,370,1,0,1,0,B,2,0,0.2,0.3,0,-0.0333333333333333,0,0,0,0,0,0
2,1,3195,1,0,1,0,B,2,0,0.3,0.3,1,-0.0333333333333333,0,0,0,0,0,0
3,1,1109,1,0,0,1,C,3,0,0.4,0.3,0,0.0666666666666667,0,0,0,0,0,0
1,1,553,1,1,0,0,A,1,0,0.4,0.4,0,0.0666666666666667,0,0,0,0,0,0
1,1,475,1,1,0,0,A,1,0.1,0.4,0.4,0,0.0666666666666667,0,0,0,0,0,0
2,1,722,0,0,1,0,B,2,0.2,0.4,0.3,1,0.4,0,1,0,1,0,0
1,1,973,0,1,0,0,A,1,0.2,0.3,0.3,0,-0.0333333333333333,1,0,0,0,0,0
2,1,611,1,0,1,0,B,2,0.2,0.3,0.2,1,-0.0333333333333333,0,0,0,0,0,0
2,1,639,1,0,1,0,B,2,0.2,0.4,0.1,1,0.0666666666666667,0,0,0,0,0,0
2,1,403,1,0,1,0,B,2,0.2,0.5,0.1,1,0.166666666666667,0,0,0,0,0,0
1,1,384,1,1,0,0,A,1,0.2,0.5,0.1,0,0.166666666666667,0,0,0,0,0,0
2,1,443,1,0,1,0,B,2,0.3,0.4,0.1,1,0.0666666666666667,0,0,0,0,0,0
1,1,429,1,1,0,0,A,1,0.3,0.4,0.1,0,0.0666666666666667,0,0,0,0,0,0
3,1,479,1,0,0,1,C,3,0.4,0.4,0,0,0.0666666666666667,0,0,0,0,0,0
2,1,592,0,0,1,0,B,2,0.3,0.4,0.1,1,0.4,0,1,0,1,0,0
1,1,500,1,1,0,0,A,1,0.2,0.4,0.1,0,0.0666666666666667,0,0,0,0,0,0
2,1,501,0,0,1,0,B,2,0.3,0.4,0.1,1,0.4,0,1,0,1,0,0
3,1,552,0,0,0,1,C,3,0.3,0.4,0.1,0,0.4,1,0,0,0,0,0
3,1,731,1,0,0,1,C,3,0.3,0.3,0.1,0,-0.366666666666667,0,0,0,0,0,0
1,1,696,1,1,0,0,A,1,0.3,0.2,0.2,1,-0.0333333333333333,0,0,0,0,0,0
3,1,559,1,0,0,1,C,3,0.4,0.1,0.2,0,0.0666666666666667,0,0,0,0,0,0
3,1,914,1,0,0,1,C,3,0.3,0.1,0.3,1,-0.0333333333333333,0,0,0,0,0,0
2,1,367,1,0,1,0,B,2,0.3,0,0.4,0,0.0666666666666667,0,0,0,0,0,0
3,1,438,1,0,0,1,C,3,0.2,0.1,0.4,1,-0.266666666666667,0,0,0,0,0,0
1,1,418,0,1,0,0,A,1,0.2,0.1,0.4,0,0.4,0,1,1,0,0,0
1,1,443,0,1,0,0,A,1,0.2,0.1,0.4,0,0.4,0,0,0,0,1,0
3,1,490,0,0,0,1,C,3,0.1,0.1,0.4,1,0.0666666666666667,0,0,0,0,0,0
3,1,382,0,0,0,1,C,3,0.1,0.1,0.4,1,0.4,0,0,0,0,1,0
1,1,285,0,1,0,0,A,1,0.1,0.1,0.4,0,0.4,1,0,0,0,0,0
1,1,285,1,1,0,0,A,1,0.1,0.1,0.3,0,-0.0333333333333333,0,0,0,0,0,0
2,1,363,1,0,1,0,B,2,0.1,0.1,0.3,0,-0.0333333333333333,0,0,0,0,0,0
2,1,356,1,0,1,0,B,2,0.1,0.2,0.2,1,-0.133333333333333,0,0,0,0,0,0
3,1,352,1,0,0,1,C,3,0.1,0.3,0.1,0,-0.0333333333333333,0,0,0,0,0,0
2,1,454,0,0,1,0,B,2,0.1,0.2,0.2,1,0.2,0,1,0,0,0,0
1,1,271,1,1,0,0,A,1,0.1,0.2,0.1,0,-0.133333333333333,0,0,0,0,0,0
1,1,318,0,1,0,0,A,1,0.2,0.2,0.1,1,-0.133333333333333,0,0,0,0,1,0
2,1,426,0,0,1,0,B,2,0.2,0.2,0.1,1,0.2,1,0,0,0,0,0
3,1,328,0,0,0,1,C,3,0.2,0.2,0.1,0,0.2,1,0,0,0,0,0
3,1,378,0,0,0,1,C,3,0.2,0.2,0.1,0,0.2,0,0,0,0,1,0
3,1,363,0,0,0,1,C,3,0.2,0.2,0.1,0,-0.133333333333333,0,0,0,0,1,0
1,1,600,0,1,0,0,A,1,0.1,0.2,0.1,0,0.2,0,0,0,0,0,0
1,1,355,0,1,0,0,A,1,0.1,0.1,0.1,1,-0.233333333333333,0,0,0,0,1,0
1,1,582,0,1,0,0,A,1,0.1,0,0.1,1,0.1,0,0,0,0,1,0
1,1,467,0,1,0,0,A,1,0.1,0,0,1,0.1,0,0,0,0,1,1
1,1,546,0,1,0,0,A,1,0.1,0,0,1,0.1,0,0,0,0,1,1
3,1,511,0,0,0,1,C,3,0,0,0,1,0,1,0,0,0,0,0
3,1,719,1,0,0,1,C,3,0,0,0,1,-0.333333333333333,0,0,0,0,0,0
2,1,423,0,0,1,0,B,2,0,0,0.1,0,-0.233333333333333,0,1,1,0,0,0
1,1,359,0,1,0,0,A,1,0,0,0.1,0,0.1,0,0,0,0,0,0
3,1,550,0,0,0,1,C,3,0,0,0.1,1,0.1,0,0,0,0,0,0
1,1,407,0,1,0,0,A,1,0,0,0.1,0,0.1,1,0,0,0,0,0
1,1,505,0,1,0,0,A,1,0,0,0.1,0,0.1,0,0,0,0,1,0
2,1,740,0,0,1,0,B,2,0,0,0.1,0,0.1,0,0,0,0,0,0
3,1,555,0,0,0,1,C,3,0,0,0.1,1,-0.233333333333333,0,0,0,0,0,0
3,1,476,1,0,0,1,C,3,0,0,0.1,1,-0.233333333333333,0,0,0,0,0,0
2,1,497,0,0,1,0,B,2,0,0,0.2,0,-0.133333333333333,0,1,1,0,0,0
3,1,476,1,0,0,1,C,3,0,0,0.2,1,-0.133333333333333,0,0,0,0,0,0
2,1,443,0,0,1,0,B,2,0,0,0.2,0,-0.133333333333333,0,1,1,0,0,0
1,1,368,1,1,0,0,A,1,0,0,0.2,0,-0.133333333333333,0,0,0,0,0,0
3,1,531,1,0,0,1,C,3,0.1,0,0.2,1,-0.466666666666667,0,0,0,0,0,0
1,1,1065,1,1,0,0,A,1,0.1,0,0.3,0,-0.0333333333333333,0,0,0,0,0,0
3,1,1093,1,0,0,1,C,3,0.2,0,0.3,1,-0.0333333333333333,0,0,0,0,0,0
2,1,2072,1,0,1,0,B,2,0.2,0,0.4,0,-0.266666666666667,0,0,0,0,0,0
1,1,351,1,1,0,0,A,1,0.2,0.1,0.4,0,-0.266666666666667,0,0,0,0,0,0
1,1,458,0,1,0,0,A,1,0.3,0.1,0.4,0,0.4,0,0,0,0,1,0
2,1,473,1,0,1,0,B,2,0.3,0.1,0.3,0,-0.366666666666667,0,0,0,0,0,0
3,1,580,0,0,0,1,C,3,0.3,0.2,0.3,1,0.3,0,1,0,0,0,0
3,1,528,1,0,0,1,C,3,0.3,0.2,0.2,0,-0.0333333333333333,0,0,0,0,0,0
1,1,378,1,1,0,0,A,1,0.3,0.2,0.3,1,-0.0333333333333333,0,0,0,0,0,0
3,1,527,1,0,0,1,C,3,0.3,0.2,0.3,1,-0.0333333333333333,0,0,0,0,0,0
3,1,568,1,0,0,1,C,3,0.3,0.2,0.3,1,-0.0333333333333333,0,0,0,0,0,0
3,1,453,1,0,0,1,C,3,0.2,0.2,0.4,1,0.0666666666666667,0,0,0,0,0,0
3,1,587,1,0,0,1,C,3,0.2,0.2,0.4,1,0.0666666666666667,0,0,0,0,0,0
2,1,530,1,0,1,0,B,2,0.2,0.1,0.5,0,0.166666666666667,0,0,0,0,0,0
3,1,532,1,0,0,1,C,3,0.1,0.2,0.5,1,0.166666666666667,0,0,0,0,0,0
1,1,491,1,1,0,0,A,1,0.1,0.2,0.6,0,0.266666666666667,0,0,0,0,0,0
2,1,948,0,0,1,0,B,2,0.2,0.1,0.6,0,0.6,0,1,0,0,0,0
1,1,336,1,1,0,0,A,1,0.2,0.1,0.6,0,0.266666666666667,0,0,0,0,0,0
2,1,704,1,0,1,0,B,2,0.3,0.1,0.5,0,0.166666666666667,0,0,0,0,0,0
1,1,1254,1,1,0,0,A,1,0.2,0.2,0.5,0,0.166666666666667,0,0,0,0,0,0
2,1,1035,1,0,1,0,B,2,0.3,0.2,0.4,0,0.0666666666666667,0,0,0,0,0,0
3,1,354,1,0,0,1,C,3,0.3,0.3,0.3,1,-0.0333333333333333,0,0,0,0,0,0
1,1,362,1,1,0,0,A,1,0.3,0.3,0.3,1,-0.0333333333333333,0,0,0,0,0,0
1,1,251,1,1,0,0,A,1,0.4,0.3,0.2,1,0.0666666666666667,0,0,0,0,0,0
3,1,352,0,0,0,1,C,3,0.5,0.2,0.2,0,-0.166666666666667,0,1,1,0,0,0
1,1,518,0,1,0,0,A,1,0.5,0.2,0.1,1,-0.166666666666667,0,0,0,0,0,0
2,1,431,0,0,1,0,B,2,0.4,0.2,0.1,0,0.4,1,0,0,0,0,0
3,1,773,0,0,0,1,C,3,0.4,0.2,0.1,0,-0.266666666666667,0,0,0,0,0,0
3,1,460,0,0,0,1,C,3,0.3,0.2,0.1,0,-0.366666666666667,0,0,0,0,1,0
2,1,659,0,0,1,0,B,2,0.3,0.1,0.1,0,0.3,0,0,0,0,0,0
1,1,783,0,1,0,0,A,1,0.2,0.1,0.1,1,0.2,0,0,0,0,0,0
2,1,861,0,0,1,0,B,2,0.2,0,0.1,0,-0.466666666666667,1,0,0,0,0,0
3,1,582,0,0,0,1,C,3,0.2,0,0,0,0.2,0,0,0,0,0,0
2,1,592,0,0,1,0,B,2,0.1,0,0,0,-0.566666666666667,0,0,0,0,0,0
1,1,410,0,1,0,0,A,1,0,0,0,1,-0.666666666666667,0,0,0,0,0,0
3,1,419,0,0,0,1,C,3,0,0,0,1,0,1,0,0,0,0,0
1,1,355,0,1,0,0,A,1,0,0,0,1,-0.666666666666667,1,0,0,0,0,0
3,1,467,1,0,0,1,C,3,0,0,0,1,-0.333333333333333,0,0,0,0,0,0
3,1,342,0,0,0,1,C,3,0,0,0.1,1,0.1,0,0,0,0,1,0
1,1,389,0,1,0,0,A,1,0,0,0.1,0,-0.566666666666667,1,0,0,0,0,0
2,1,404,1,0,1,0,B,2,0,0,0.1,0,-0.9,0,0,0,0,0,0
3,1,332,0,0,0,1,C,3,0,0.1,0.1,1,0.1,0,1,0,0,0,0
2,1,368,1,0,1,0,B,2,0,0.1,0.1,1,-0.9,0,0,0,0,0,0
3,1,388,0,0,0,1,C,3,0,0.2,0.1,0,0.2,0,1,1,0,0,0
1,1,646,0,1,0,0,A,1,0,0.2,0.1,0,-0.466666666666667,0,0,0,0,0,0
1,1,464,0,1,0,0,A,1,0,0.2,0.1,0,0.2,0,0,0,0,1,0
1,1,478,0,1,0,0,A,1,0,0.2,0.1,0,0.2,0,0,0,0,1,0
1,1,1963,0,1,0,0,A,1,0,0.2,0.1,0,-0.466666666666667,0,0,0,0,1,0
2,1,1124,0,0,1,0,B,2,0,0.2,0,1,-0.466666666666667,0,0,0,0,0,0
1,1,7167,0,1,0,0,A,1,0,0.2,0,0,-0.466666666666667,1,0,0,0,0,0
3,1,1712,0,0,0,1,C,3,0,0.2,0,0,-0.466666666666667,0,0,0,0,0,0
2,1,5515,0,0,1,0,B,2,0,0.1,0,1,-0.566666666666667,0,0,0,0,0,0
2,1,317,1,0,1,0,B,2,0,0.1,0,1,-0.9,0,0,0,0,0,0
1,1,343,0,1,0,0,A,1,0,0.1,0,0,0.1,0,1,1,0,0,0
2,1,414,0,0,1,0,B,2,0,0.1,0,1,-0.566666666666667,0,0,0,0,0,0
2,1,409,0,0,1,0,B,2,0,0.1,0,1,0.1,0,0,0,0,1,0
3,1,398,0,0,0,1,C,3,0,0.1,0,0,-0.233333333333333,1,0,0,0,0,0
2,1,933,0,0,1,0,B,2,0,0.1,0,1,-0.233333333333333,0,0,0,0,0,0
3,1,468,0,0,0,1,C,3,0,0.1,0,0,-0.233333333333333,1,0,0,0,0,0
3,1,521,0,0,0,1,C,3,0,0.1,0,0,-0.233333333333333,0,0,0,0,1,0
1,1,366,0,1,0,0,A,1,0,0.1,0,0,-0.233333333333333,0,0,0,0,0,0
1,1,313,0,1,0,0,A,1,0,0.1,0,0,-0.233333333333333,0,0,0,0,1,0
2,1,348,0,0,1,0,B,2,0,0.1,0,1,-0.566666666666667,0,0,0,0,0,0
2,1,315,0,0,1,0,B,2,0,0,0,1,-0.333333333333333,0,0,0,0,1,0
2,1,408,1,0,1,0,B,2,0,0,0,1,-1,0,0,0,0,0,0
3,1,416,0,0,0,1,C,3,0,0.1,0,0,0.1,0,1,1,0,0,0
1,1,390,0,1,0,0,A,1,0,0.1,0,0,-0.233333333333333,0,0,0,0,0,0
3,1,457,0,0,0,1,C,3,0,0.1,0,0,-0.566666666666667,0,0,0,0,0,0
2,1,623,1,0,1,0,B,2,0,0.1,0,1,-0.566666666666667,0,0,0,0,0,0
3,1,440,0,0,0,1,C,3,0,0.2,0,0,-0.466666666666667,0,1,1,0,0,0
3,1,383,1,0,0,1,C,3,0,0.2,0,0,-0.466666666666667,0,0,0,0,0,0
2,1,383,1,0,1,0,B,2,0,0.2,0.1,1,-0.133333333333333,0,0,0,0,0,0
2,1,376,1,0,1,0,B,2,0,0.3,0.1,1,-0.366666666666667,0,0,0,0,0,0
3,1,404,1,0,0,1,C,3,0,0.4,0.1,0,0.0666666666666667,0,0,0,0,0,0
2,1,360,0,0,1,0,B,2,0,0.4,0.2,1,0.4,0,1,0,1,0,0
1,1,605,1,1,0,0,A,1,0,0.3,0.2,0,-0.366666666666667,0,0,0,0,0,0
2,1,411,1,0,1,0,B,2,0.1,0.3,0.2,1,-0.366666666666667,0,0,0,0,0,0
1,1,307,1,1,0,0,A,1,0.1,0.4,0.2,0,0.0666666666666667,0,0,0,0,0,0
1,1,384,1,1,0,0,A,1,0.2,0.4,0.2,0,0.0666666666666667,0,0,0,0,0,0
3,1,549,1,0,0,1,C,3,0.3,0.3,0.2,0,-0.7,0,0,0,0,0,0
2,1,386,1,0,1,0,B,2,0.3,0.3,0.3,1,-0.366666666666667,0,0,0,0,0,0
2,1,323,0,0,1,0,B,2,0.3,0.4,0.2,1,0.0666666666666667,0,0,0,0,1,0
1,1,306,1,1,0,0,A,1,0.3,0.3,0.2,1,-0.366666666666667,0,0,0,0,0,0
2,1,340,1,0,1,0,B,2,0.4,0.2,0.2,0,0.0666666666666667,0,0,0,0,0,0
2,1,499,1,0,1,0,B,2,0.4,0.3,0.1,0,0.0666666666666667,0,0,0,0,0,0
3,1,657,1,0,0,1,C,3,0.4,0.4,0.1,0,-0.6,0,0,0,0,0,0
1,1,448,1,1,0,0,A,1,0.3,0.4,0.2,0,-0.6,0,0,0,0,0,0
2,1,478,1,0,1,0,B,2,0.4,0.3,0.2,0,-0.266666666666667,0,0,0,0,0,0
3,1,440,0,0,0,1,C,3,0.3,0.4,0.2,0,0.4,0,1,0,0,0,0
3,1,376,1,0,0,1,C,3,0.2,0.4,0.2,0,0.0666666666666667,0,0,0,0,0,0
3,1,353,0,0,0,1,C,3,0.2,0.4,0.2,0,0.0666666666666667,0,0,0,0,1,0
2,1,637,1,0,1,0,B,2,0.2,0.3,0.2,1,-0.0333333333333333,0,0,0,0,0,0
1,1,527,1,1,0,0,A,1,0.2,0.4,0.2,0,0.0666666666666667,0,0,0,0,0,0
3,1,489,0,0,0,1,C,3,0.2,0.4,0.2,0,0.4,0,1,0,0,0,0
1,1,412,1,1,0,0,A,1,0.2,0.3,0.2,0,-0.366666666666667,0,0,0,0,0,0
3,1,539,1,0,0,1,C,3,0.3,0.2,0.2,0,-0.366666666666667,0,0,0,0,0,0
3,1,603,1,0,0,1,C,3,0.3,0.2,0.2,0,-0.0333333333333333,0,0,0,0,0,0
3,1,310,1,0,0,1,C,3,0.2,0.2,0.3,1,-0.0333333333333333,0,0,0,0,0,0
1,1,307,0,1,0,0,A,1,0.2,0.1,0.4,0,0.4,0,1,1,0,0,0
1,1,345,1,1,0,0,A,1,0.2,0.1,0.4,0,0.0666666666666667,0,0,0,0,0,0
2,1,521,1,0,1,0,B,2,0.3,0.1,0.3,0,-0.0333333333333333,0,0,0,0,0,0
2,1,569,1,0,1,0,B,2,0.3,0.2,0.3,0,-0.7,0,0,0,0,0,0
3,1,457,1,0,0,1,C,3,0.3,0.2,0.3,1,-0.0333333333333333,0,0,0,0,0,0
3,1,360,1,0,0,1,C,3,0.2,0.2,0.4,1,-0.266666666666667,0,0,0,0,0,0
2,1,417,1,0,1,0,B,2,0.2,0.2,0.5,0,0.166666666666667,0,0,0,0,0,0
3,1,363,1,0,0,1,C,3,0.1,0.3,0.5,1,-0.166666666666667,0,0,0,0,0,0
2,1,583,0,0,1,0,B,2,0.1,0.3,0.5,0,0.166666666666667,0,1,1,0,0,0
3,1,355,1,0,0,1,C,3,0.1,0.3,0.4,1,0.0666666666666667,0,0,0,0,0,0
3,1,374,0,0,0,1,C,3,0.1,0.3,0.4,1,0.0666666666666667,0,0,0,0,1,0
2,1,433,1,0,1,0,B,2,0.1,0.3,0.4,0,-0.6,0,0,0,0,0,0
2,1,470,1,0,1,0,B,2,0,0.4,0.4,1,-0.266666666666667,0,0,0,0,0,0
2,1,531,1,0,1,0,B,2,0,0.4,0.4,1,0.0666666666666667,0,0,0,0,0,0
2,1,344,1,0,1,0,B,2,0,0.4,0.4,1,-0.266666666666667,0,0,0,0,0,0
3,1,485,1,0,0,1,C,3,0,0.5,0.3,0,0.166666666666667,0,0,0,0,0,0
2,1,649,1,0,1,0,B,2,0,0.5,0.3,1,-0.166666666666667,0,0,0,0,0,0
3,1,512,0,0,0,1,C,3,0,0.5,0.3,0,0.5,0,1,1,0,0,0
2,1,551,1,0,1,0,B,2,0,0.5,0.2,1,-0.5,0,0,0,0,0,0
2,1,487,1,0,1,0,B,2,0,0.6,0.2,1,0.266666666666667,0,0,0,0,0,0
3,1,798,0,0,0,1,C,3,0,0.7,0.1,0,0.7,0,1,1,0,0,0
3,1,538,1,0,0,1,C,3,0,0.7,0.1,0,0.366666666666667,0,0,0,0,0,0
2,1,464,1,0,1,0,B,2,0,0.6,0.2,1,-0.0666666666666667,0,0,0,0,0,0
3,1,371,1,0,0,1,C,3,0,0.6,0.2,0,-0.0666666666666667,0,0,0,0,0,0
2,1,570,0,0,1,0,B,2,0,0.5,0.3,1,0.166666666666667,0,1,0,1,0,0
2,1,373,1,0,1,0,B,2,0,0.4,0.3,1,0.0666666666666667,0,0,0,0,0,0
2,1,446,1,0,1,0,B,2,0,0.5,0.2,1,0.166666666666667,0,0,0,0,0,0
3,1,349,0,0,0,1,C,3,0,0.5,0.2,0,-0.166666666666667,0,1,1,0,0,0
2,1,493,1,0,1,0,B,2,0,0.5,0.2,1,0.166666666666667,0,0,0,0,0,0
1,1,543,1,1,0,0,A,1,0,0.5,0.2,0,0.166666666666667,0,0,0,0,0,0
2,1,475,0,0,1,0,B,2,0.1,0.4,0.2,1,0.4,0,1,0,1,0,0
3,1,364,1,0,0,1,C,3,0.1,0.4,0.2,0,0.0666666666666667,0,0,0,0,0,0
3,1,436,1,0,0,1,C,3,0.1,0.4,0.2,0,0.0666666666666667,0,0,0,0,0,0
2,1,1201,1,0,1,0,B,2,0.1,0.3,0.3,1,-0.366666666666667,0,0,0,0,0,0
2,1,959,1,0,1,0,B,2,0.1,0.4,0.2,1,-0.6,0,0,0,0,0,0
1,1,397,1,1,0,0,A,1,0.1,0.5,0.2,0,0.166666666666667,0,0,0,0,0,0
2,1,399,1,0,1,0,B,2,0.2,0.4,0.2,1,-0.266666666666667,0,0,0,0,0,0
3,1,495,1,0,0,1,C,3,0.2,0.4,0.2,0,-0.266666666666667,0,0,0,0,0,0
2,1,497,1,0,1,0,B,2,0.2,0.4,0.3,1,0.0666666666666667,0,0,0,0,0,0
1,1,451,1,1,0,0,A,1,0.2,0.4,0.3,0,0.0666666666666667,0,0,0,0,0,0
3,1,410,1,0,0,1,C,3,0.2,0.4,0.3,0,-0.266666666666667,0,0,0,0,0,0
2,1,239,0,0,1,0,B,2,0.2,0.4,0.4,1,-0.266666666666667,0,1,0,1,0,0
2,1,927,1,0,1,0,B,2,0.2,0.4,0.3,1,-0.266666666666667,0,0,0,0,0,0
2,1,7434,1,0,1,0,B,2,0.2,0.5,0.2,1,-0.166666666666667,0,0,0,0,0,0
1,1,844,1,1,0,0,A,1,0.2,0.5,0.2,0,0.166666666666667,0,0,0,0,0,0
1,1,611,1,1,0,0,A,1,0.3,0.4,0.2,0,-0.266666666666667,0,0,0,0,0,0
3,1,4121,1,0,0,1,C,3,0.3,0.4,0.2,0,-0.266666666666667,0,0,0,0,0,0
1,1,333,1,1,0,0,A,1,0.3,0.3,0.3,1,-0.366666666666667,0,0,0,0,0,0
2,1,364,0,0,1,0,B,2,0.4,0.3,0.2,0,0.4,0,1,1,0,0,0
1,1,471,1,1,0,0,A,1,0.4,0.2,0.2,1,-0.266666666666667,0,0,0,0,0,0
2,1,415,1,0,1,0,B,2,0.4,0.2,0.2,0,-0.266666666666667,0,0,0,0,0,0
1,1,338,0,1,0,0,A,1,0.4,0.3,0.1,1,0.4,0,1,0,1,0,0
3,1,338,1,0,0,1,C,3,0.4,0.3,0.1,0,-0.266666666666667,0,0,0,0,0,0
1,1,386,1,1,0,0,A,1,0.4,0.2,0.2,1,0.0666666666666667,0,0,0,0,0,0
3,1,300,0,0,0,1,C,3,0.5,0.1,0.2,0,0.5,0,1,1,0,0,0
2,1,577,1,0,1,0,B,2,0.4,0.1,0.2,0,0.0666666666666667,0,0,0,0,0,0
2,1,388,1,0,1,0,B,2,0.3,0.2,0.2,0,-0.7,0,0,0,0,0,0
1,1,392,1,1,0,0,A,1,0.3,0.3,0.1,1,-0.0333333333333333,0,0,0,0,0,0
3,1,401,1,0,0,1,C,3,0.3,0.3,0.1,0,-0.366666666666667,0,0,0,0,0,0
3,1,373,1,0,0,1,C,3,0.3,0.3,0.2,0,-0.366666666666667,0,0,0,0,0,0
2,1,412,1,0,1,0,B,2,0.2,0.3,0.3,1,-0.0333333333333333,0,0,0,0,0,0
3,1,447,0,0,0,1,C,3,0.2,0.3,0.3,1,-0.0333333333333333,0,1,1,0,0,0
3,1,438,1,0,0,1,C,3,0.2,0.3,0.3,1,-0.366666666666667,0,0,0,0,0,0
2,1,475,1,0,1,0,B,2,0.2,0.3,0.3,1,-0.366666666666667,0,0,0,0,0,0
3,1,379,1,0,0,1,C,3,0.1,0.4,0.3,0,0.0666666666666667,0,0,0,0,0,0
2,1,549,0,0,1,0,B,2,0.1,0.4,0.4,1,0.0666666666666667,0,1,0,1,0,0
3,1,777,1,0,0,1,C,3,0.1,0.3,0.4,1,0.0666666666666667,0,0,0,0,0,0
1,1,531,1,1,0,0,A,1,0.1,0.2,0.5,0,-0.5,0,0,0,0,0,0
3,1,1697,0,0,0,1,C,3,0.1,0.2,0.5,1,0.5,0,1,0,1,0,0
3,1,579,1,0,0,1,C,3,0.1,0.2,0.4,1,0.0666666666666667,0,0,0,0,0,0
3,1,914,1,0,0,1,C,3,0.1,0.2,0.4,1,-0.266666666666667,0,0,0,0,0,0
1,1,569,1,1,0,0,A,1,0.1,0.1,0.5,0,0.166666666666667,0,0,0,0,0,0
2,1,432,1,0,1,0,B,2,0.2,0.1,0.5,0,0.166666666666667,0,0,0,0,0,0
2,1,476,1,0,1,0,B,2,0.2,0.2,0.4,0,-0.6,0,0,0,0,0,0
3,1,582,0,0,0,1,C,3,0.2,0.2,0.4,1,0.4,0,1,0,1,0,0
3,1,561,1,0,0,1,C,3,0.2,0.2,0.3,1,-0.0333333333333333,0,0,0,0,0,0
